,class_name,class_description,domain_name,domain_label,domain_description,field_core,field_definition,field_implementationNotes,field_label,field_mappingInstructions,field_name,field_ordinal,field_prompt,field_questionText,field_simpleDatatype,field_codelistSubmissionValues
0,Interventions,"This SDTM class captures investigational, therapeutic and other treatments that are administered to the subject (with some actual or expected physiological effect) either as specified by the study protocol (e.g., exposure to study drug), coincident with the study assessment period (e.g., concomitant medications), or self-administered by the subject (such as use of alcohol, tobacco, or caffeine). (Source: CDISC Controlled Terminology, GNRLOBSC, C103374, 2023-06-30)",AG,Procedure Agents,"An interventions domain that contains the agents administered to the subject as part of a procedure or assessment, as opposed to drugs, medications and therapies administered with therapeutic intent. (Source: CDISC Controlled Terminology, DOMAIN, C117755, 2023-6-28)",HR,A unique identifier for a study.,"Although this field is not typically captured on a CRF, it should be displayed clearly on the CRF and/or in the EDC system. This field can be included into the database or populated during SDTM-based dataset creation before submission.",Study Identifier,Maps directly to the SDTMIG variable listed in the SDTMIG Target column.,STUDYID,1,[Protocol/Study],What is the study identifier?,Char,
1,Interventions,"This SDTM class captures investigational, therapeutic and other treatments that are administered to the subject (with some actual or expected physiological effect) either as specified by the study protocol (e.g., exposure to study drug), coincident with the study assessment period (e.g., concomitant medications), or self-administered by the subject (such as use of alcohol, tobacco, or caffeine). (Source: CDISC Controlled Terminology, GNRLOBSC, C103374, 2023-06-30)",AG,Procedure Agents,"An interventions domain that contains the agents administered to the subject as part of a procedure or assessment, as opposed to drugs, medications and therapies administered with therapeutic intent. (Source: CDISC Controlled Terminology, DOMAIN, C117755, 2023-6-28)",HR,A unique identifier for a site within a study.,"Paper: This is typically preprinted in the header of each CRF page for single site studies. For studies with multiple sites, this field may be left blank so that the number can be recorded by the site, or it may be preprinted on CRFs that are shipped to each site. EDC: This should be prepopulated.",Study Site Identifier,Maps directly to the SDTMIG variable listed in the SDTMIG Target column.,SITEID,2,Site (Identifier),What is the site identifier?,Char,
2,Interventions,"This SDTM class captures investigational, therapeutic and other treatments that are administered to the subject (with some actual or expected physiological effect) either as specified by the study protocol (e.g., exposure to study drug), coincident with the study assessment period (e.g., concomitant medications), or self-administered by the subject (such as use of alcohol, tobacco, or caffeine). (Source: CDISC Controlled Terminology, GNRLOBSC, C103374, 2023-06-30)",AG,Procedure Agents,"An interventions domain that contains the agents administered to the subject as part of a procedure or assessment, as opposed to drugs, medications and therapies administered with therapeutic intent. (Source: CDISC Controlled Terminology, DOMAIN, C117755, 2023-6-28)",HR,A unique subject identifier within a site and a study.,"Paper: This is typically recorded in the header of each CRF page. EDC: The subject identifiers may be system generated. This CDASH variable is typically collected in all CDASH domains. However, this CDASH variable is populated only in the SDTM DM domain. For more information, refer to the SDTMIG.",Subject Identifier for the Study,Maps directly to the SDTMIG variable listed in the SDTMIG Target column.,SUBJID,3,[Subject/Participant] (Identifier),What [is/was] the (study) [subject/participant] identifier?,Char,
3,Interventions,"This SDTM class captures investigational, therapeutic and other treatments that are administered to the subject (with some actual or expected physiological effect) either as specified by the study protocol (e.g., exposure to study drug), coincident with the study assessment period (e.g., concomitant medications), or self-administered by the subject (such as use of alcohol, tobacco, or caffeine). (Source: CDISC Controlled Terminology, GNRLOBSC, C103374, 2023-06-30)",AG,Procedure Agents,"An interventions domain that contains the agents administered to the subject as part of a procedure or assessment, as opposed to drugs, medications and therapies administered with therapeutic intent. (Source: CDISC Controlled Terminology, DOMAIN, C117755, 2023-6-28)",O,A grouping of topic-variable values based on user-defined characteristics.,"Sponsor-defined controlled terminology. This would most commonly be either a heading or a preprinted category value on the CRF, not a question to which the site would provide an answer. If a question is asked, the response would typically be a sponsor-defined codelist. If the form is laid out as a grid, then words such as ""Category"" can be included as the column header.",Category for Agent,Maps directly to the SDTMIG variable listed in the SDTMIG Target column.,AGCAT,4,Procedure Agent Category; NULL,What is the category for the [procedure/assessment agent]?,Char,
4,Interventions,"This SDTM class captures investigational, therapeutic and other treatments that are administered to the subject (with some actual or expected physiological effect) either as specified by the study protocol (e.g., exposure to study drug), coincident with the study assessment period (e.g., concomitant medications), or self-administered by the subject (such as use of alcohol, tobacco, or caffeine). (Source: CDISC Controlled Terminology, GNRLOBSC, C103374, 2023-06-30)",AG,Procedure Agents,"An interventions domain that contains the agents administered to the subject as part of a procedure or assessment, as opposed to drugs, medications and therapies administered with therapeutic intent. (Source: CDISC Controlled Terminology, DOMAIN, C117755, 2023-6-28)",O,A sub-division of the AGCAT values based on user-defined characteristics.,Sponsor-defined controlled terminology. This would most commonly be preprinted on the CRF or screen and prepopulated in the data management system. This is not typically a question to which the site would provide an answer.,Subcategory for Agent,Maps directly to the SDTMIG variable listed in the SDTMIG Target column.,AGSCAT,5,Procedure Agent Subcategory; NULL,What is the subcategory for the [procedure/assessment agent]?,Char,
5,Interventions,"This SDTM class captures investigational, therapeutic and other treatments that are administered to the subject (with some actual or expected physiological effect) either as specified by the study protocol (e.g., exposure to study drug), coincident with the study assessment period (e.g., concomitant medications), or self-administered by the subject (such as use of alcohol, tobacco, or caffeine). (Source: CDISC Controlled Terminology, GNRLOBSC, C103374, 2023-06-30)",AG,Procedure Agents,"An interventions domain that contains the agents administered to the subject as part of a procedure or assessment, as opposed to drugs, medications and therapies administered with therapeutic intent. (Source: CDISC Controlled Terminology, DOMAIN, C117755, 2023-6-28)",O,An indication of whether any procedure/assessment agent(s) were administered.,The intent/purpose of collecting this field is to help with data cleaning and monitoring. It provides verification that all other fields on the CRF were deliberately left blank.,Any Procedure Agent Taken,Does not map to an SDTMIG variable. The SDTM annotated CRF indicates that this field is NOT SUBMITTED.,AGYN,6,Any procedure agents,[Were/Was] there any [procedure/assessment agent(s)] taken/administered?,Char,['NY']
6,Interventions,"This SDTM class captures investigational, therapeutic and other treatments that are administered to the subject (with some actual or expected physiological effect) either as specified by the study protocol (e.g., exposure to study drug), coincident with the study assessment period (e.g., concomitant medications), or self-administered by the subject (such as use of alcohol, tobacco, or caffeine). (Source: CDISC Controlled Terminology, GNRLOBSC, C103374, 2023-06-30)",AG,Procedure Agents,"An interventions domain that contains the agents administered to the subject as part of a procedure or assessment, as opposed to drugs, medications and therapies administered with therapeutic intent. (Source: CDISC Controlled Terminology, DOMAIN, C117755, 2023-6-28)",O,"A sponsor-defined identifier. In CDASH, this is typically used for preprinted or auto-generated numbers on the CRF, or any other type of identifier that does not already have a defined CDASH identifier field.","Because SPID is a sponsor-defined identifier, conformance to Question Text or Item Prompt is not applicable. Typically used as an identifier in a data query to communicate clearly to the site the specific record in question or to reconcile procedure agent records with AEs and/or MH. May be used to record preprinted number (e.g., line number, record number) on the CRF. This field may be populated by the sponsor's data collection system.",AG Sponsor-Defined Identifier,Maps directly to the SDTMIG variable listed in the SDTMIG Target column. May be used to create RELREC to link this record with a record in another domain.,AGSPID,7,[Sponsor defined],[Sponsor defined question],Char,['NY']
7,Interventions,"This SDTM class captures investigational, therapeutic and other treatments that are administered to the subject (with some actual or expected physiological effect) either as specified by the study protocol (e.g., exposure to study drug), coincident with the study assessment period (e.g., concomitant medications), or self-administered by the subject (such as use of alcohol, tobacco, or caffeine). (Source: CDISC Controlled Terminology, GNRLOBSC, C103374, 2023-06-30)",AG,Procedure Agents,"An interventions domain that contains the agents administered to the subject as part of a procedure or assessment, as opposed to drugs, medications and therapies administered with therapeutic intent. (Source: CDISC Controlled Terminology, DOMAIN, C117755, 2023-6-28)",HR,Verbatim name of procedure/assessment agent administered.,"In most cases, the verbatim drug names or treatment will be coded to a standard dictionary (e.g., WHODrug) after the data have been collected on the CRF. For the collection of verbatim procedure agents, the recommendation is to ask sites to provide the full trade or proprietary name since it is more exact than the generic. The full trade name provides the base generic and the appropriate salt for that particular drug. In addition, for coding purposes it helps with ATC classification system code selection. For example, Tylenol with codeine #1 has a different ATC code than Tylenol with codeine #3.",Reported Agent Name,Maps directly to the SDTMIG variable listed in the SDTMIG Target column.,AGTRT,8,[Procedure/Assessment Agent],What was the [procedure/assessment agent] [name/term]?,Char,['NY']
8,Interventions,"This SDTM class captures investigational, therapeutic and other treatments that are administered to the subject (with some actual or expected physiological effect) either as specified by the study protocol (e.g., exposure to study drug), coincident with the study assessment period (e.g., concomitant medications), or self-administered by the subject (such as use of alcohol, tobacco, or caffeine). (Source: CDISC Controlled Terminology, GNRLOBSC, C103374, 2023-06-30)",AG,Procedure Agents,"An interventions domain that contains the agents administered to the subject as part of a procedure or assessment, as opposed to drugs, medications and therapies administered with therapeutic intent. (Source: CDISC Controlled Terminology, DOMAIN, C117755, 2023-6-28)",O,An indication that a specific procedure/assessment agent or group of agents is prespecified on a CRF.,"For prespecified interventions, a hidden field on a CRF defaulted to ""Y"", or added during the SDTM dataset creation. If a study collects both prespecified and free-text interventions, the value of AGPRESP should be ""Y"" for all prespecified interventions and null for interventions reported as free text.",AG Prespecified,Maps directly to the SDTMIG variable listed in the SDTMIG Target column.,AGPRESP,9,[Procedure/Assessment Agent],What was the [procedure/assessment agent] [name/term]?,Char,['NY']
9,Interventions,"This SDTM class captures investigational, therapeutic and other treatments that are administered to the subject (with some actual or expected physiological effect) either as specified by the study protocol (e.g., exposure to study drug), coincident with the study assessment period (e.g., concomitant medications), or self-administered by the subject (such as use of alcohol, tobacco, or caffeine). (Source: CDISC Controlled Terminology, GNRLOBSC, C103374, 2023-06-30)",AG,Procedure Agents,"An interventions domain that contains the agents administered to the subject as part of a procedure or assessment, as opposed to drugs, medications and therapies administered with therapeutic intent. (Source: CDISC Controlled Terminology, DOMAIN, C117755, 2023-6-28)",O,An indication whether the given procedure/assessment agent or group of agents was administered when information about the occurrence of a specific procedure/assessment agent is solicited.,AGOCCUR is used to report the occurrence of a prespecified procedure agent. AGOCCUR is not used for spontaneously free-text reported procedure agent(s). The site should be able to indicate that the response was not asked or answered.,AG Occurrence,"Maps directly to the SDTMIG variable listed in the SDTMIG Target column. If the response was not asked or answered, populate the SDTMIG variable AGSTAT with ""NOT DONE"".",AGOCCUR,10,[AGTRT],[Has/Was] the subject (been) administered the [procedure/assessment agent]?,Char,['NY']
10,Interventions,"This SDTM class captures investigational, therapeutic and other treatments that are administered to the subject (with some actual or expected physiological effect) either as specified by the study protocol (e.g., exposure to study drug), coincident with the study assessment period (e.g., concomitant medications), or self-administered by the subject (such as use of alcohol, tobacco, or caffeine). (Source: CDISC Controlled Terminology, GNRLOBSC, C103374, 2023-06-30)",AG,Procedure Agents,"An interventions domain that contains the agents administered to the subject as part of a procedure or assessment, as opposed to drugs, medications and therapies administered with therapeutic intent. (Source: CDISC Controlled Terminology, DOMAIN, C117755, 2023-6-28)",O,"The dose of procedure/assessment agent (e.g., --TRT ) given at one time represented as a numeric value.","Used when the dose/amount administered has only numeric entries. If non-numeric entries are possible, use the CDASH field AGDSTXT.",AG Dose per Administration,Maps directly to the SDTMIG variable listed in the SDTMIG Target column.,AGDOSE,11,[Dose/Amount] (per administration),What was the individual dose per administration of the [procedure/assessment agent]?,Num,['NY']
11,Interventions,"This SDTM class captures investigational, therapeutic and other treatments that are administered to the subject (with some actual or expected physiological effect) either as specified by the study protocol (e.g., exposure to study drug), coincident with the study assessment period (e.g., concomitant medications), or self-administered by the subject (such as use of alcohol, tobacco, or caffeine). (Source: CDISC Controlled Terminology, GNRLOBSC, C103374, 2023-06-30)",AG,Procedure Agents,"An interventions domain that contains the agents administered to the subject as part of a procedure or assessment, as opposed to drugs, medications and therapies administered with therapeutic intent. (Source: CDISC Controlled Terminology, DOMAIN, C117755, 2023-6-28)",O,The dose of procedure/assessment agent administered per instance.,"Defining this data collection field as a dose text field allows for flexibility in capturing dose entries as numbers, text or ranges. The data collected in this dose text-format field should be separated or mapped to either SDTMIG AGDOSE (if numeric) or AGDOSTXT (if text).",Procedure Agents Dose Description,"This does not map directly to an SDTMIG variable. Numeric values map to AGDOSE in SDTM. Non-numeric values (e.g., 200-400) map to AGDOSTXT in SDTM.",AGDSTXT,12,Dose,What was the individual dose of the [procedure/assessment agent]?,Char,['NY']
12,Interventions,"This SDTM class captures investigational, therapeutic and other treatments that are administered to the subject (with some actual or expected physiological effect) either as specified by the study protocol (e.g., exposure to study drug), coincident with the study assessment period (e.g., concomitant medications), or self-administered by the subject (such as use of alcohol, tobacco, or caffeine). (Source: CDISC Controlled Terminology, GNRLOBSC, C103374, 2023-06-30)",AG,Procedure Agents,"An interventions domain that contains the agents administered to the subject as part of a procedure or assessment, as opposed to drugs, medications and therapies administered with therapeutic intent. (Source: CDISC Controlled Terminology, DOMAIN, C117755, 2023-6-28)",R/C,The unit associated with the procedure/assessment agent.,"When sponsors collect data for amount of dose administered (i.e., Dose, Total Daily Dose), the unit must be collected as well (if applicable).",AG Dose Units,Maps directly to the SDTMIG variable listed in the SDTMIG Target column.,AGDOSU,13,(Dose) Unit,What is the unit (for the dose of the [procedure/assessment agent])?,Char,"['UNIT', 'CMDOSU']"
13,Interventions,"This SDTM class captures investigational, therapeutic and other treatments that are administered to the subject (with some actual or expected physiological effect) either as specified by the study protocol (e.g., exposure to study drug), coincident with the study assessment period (e.g., concomitant medications), or self-administered by the subject (such as use of alcohol, tobacco, or caffeine). (Source: CDISC Controlled Terminology, GNRLOBSC, C103374, 2023-06-30)",AG,Procedure Agents,"An interventions domain that contains the agents administered to the subject as part of a procedure or assessment, as opposed to drugs, medications and therapies administered with therapeutic intent. (Source: CDISC Controlled Terminology, DOMAIN, C117755, 2023-6-28)",O,The pharmaceutical dosage form in which the AGTRT is physically presented.,"Some drugs have multiple forms and this field may be needed to code the drug to an ATC level. However, in general, this level of detail should not be necessary except for procedure agents of interest.",AG Dose Form,Maps directly to the SDTMIG variable listed in the SDTMIG Target column.,AGDOSFRM,14,Dose Form,What was the dose form of the [procedure/assessment agent]?,Char,"['FRM', 'CMDOSFRM']"
14,Interventions,"This SDTM class captures investigational, therapeutic and other treatments that are administered to the subject (with some actual or expected physiological effect) either as specified by the study protocol (e.g., exposure to study drug), coincident with the study assessment period (e.g., concomitant medications), or self-administered by the subject (such as use of alcohol, tobacco, or caffeine). (Source: CDISC Controlled Terminology, GNRLOBSC, C103374, 2023-06-30)",AG,Procedure Agents,"An interventions domain that contains the agents administered to the subject as part of a procedure or assessment, as opposed to drugs, medications and therapies administered with therapeutic intent. (Source: CDISC Controlled Terminology, DOMAIN, C117755, 2023-6-28)",O,The number of doses administered during a specific interval.,"The frequency of the procedure agent. When collected, the recommendation is to collect dosing information in separate fields (e.g., AGDOSE, AGDOSEU, AGDOSFRQ) for specific and consistent data collection and to enable programmatically utilizing these data.",AG Dosing Frequency per Interval,Maps directly to the SDTMIG variable listed in the SDTMIG Target column.,AGDOSFRQ,15,Frequency,What was the frequency of the [procedure/assessment agent]?,Char,"['FREQ', 'CMDOSFRQ']"
15,Interventions,"This SDTM class captures investigational, therapeutic and other treatments that are administered to the subject (with some actual or expected physiological effect) either as specified by the study protocol (e.g., exposure to study drug), coincident with the study assessment period (e.g., concomitant medications), or self-administered by the subject (such as use of alcohol, tobacco, or caffeine). (Source: CDISC Controlled Terminology, GNRLOBSC, C103374, 2023-06-30)",AG,Procedure Agents,"An interventions domain that contains the agents administered to the subject as part of a procedure or assessment, as opposed to drugs, medications and therapies administered with therapeutic intent. (Source: CDISC Controlled Terminology, DOMAIN, C117755, 2023-6-28)",R/C,The route of administration of the procedure/assessment agent.,"This additional information may be important to collect on the CRF when the sponsor wants to capture a procedure agent's route of administration, for purposes such as coding, and the procedure agent may have more than 1 route. Some companies may use route in coding procedure agents to be able to choose a precise preferred name and ATC code.",AG Route of Administration,Maps directly to the SDTMIG variable listed in the SDTMIG Target column.,AGROUTE,16,Route,What was the route of administration of the [procedure/assessment agent]?,Char,"['ROUTE', 'CMROUTE']"
16,Interventions,"This SDTM class captures investigational, therapeutic and other treatments that are administered to the subject (with some actual or expected physiological effect) either as specified by the study protocol (e.g., exposure to study drug), coincident with the study assessment period (e.g., concomitant medications), or self-administered by the subject (such as use of alcohol, tobacco, or caffeine). (Source: CDISC Controlled Terminology, GNRLOBSC, C103374, 2023-06-30)",AG,Procedure Agents,"An interventions domain that contains the agents administered to the subject as part of a procedure or assessment, as opposed to drugs, medications and therapies administered with therapeutic intent. (Source: CDISC Controlled Terminology, DOMAIN, C117755, 2023-6-28)",R/C,"The start date when the procedure/assessment agent was first administered, represented in an unambiguous date format (e.g., DD-MON-YYYY).","The assumption is that sponsors should either have a start date or will indicate that the procedure agent was started before, during or after the study period. The preferred method is to collect a complete start date. Partial dates (e.g., providing year only) for procedure agent started a considerable amount of time prior to the start of study are acceptable.",Procedure Agent Start Date,"This does not map directly to an SDTMIG variable. For the SDTM submission dataset, concatenate all collected CDASH START DATE and TIME components and populate the SDTMIG variable AGSTDTC in ISO 8601 format.",AGSTDAT,17,Start Date,What was the procedure/assessment agent] start date?,Char,"['ROUTE', 'CMROUTE']"
17,Interventions,"This SDTM class captures investigational, therapeutic and other treatments that are administered to the subject (with some actual or expected physiological effect) either as specified by the study protocol (e.g., exposure to study drug), coincident with the study assessment period (e.g., concomitant medications), or self-administered by the subject (such as use of alcohol, tobacco, or caffeine). (Source: CDISC Controlled Terminology, GNRLOBSC, C103374, 2023-06-30)",AG,Procedure Agents,"An interventions domain that contains the agents administered to the subject as part of a procedure or assessment, as opposed to drugs, medications and therapies administered with therapeutic intent. (Source: CDISC Controlled Terminology, DOMAIN, C117755, 2023-6-28)",R/C,"The time the procedure/assessment agent was started, represented in an ambiguous time format (e.g., h:mm:ss).","Recommend collecting the time a procedure agent was started only when a protocol or data collection scenarios supports it. Typically, a start time is not collected unless the subject is under the direct care of the site at the time a procedure agent administered or the subject records the start time in a diary. See Section 3.7, Mapping Relative Times from Collection to Submissions, and the SDTMIG for more information.",Procedure Agent Start Time,"This does not map directly to an SDTMIG variable. For the SDTM submission dataset, concatenate all collected CDASH START DATE and TIME components and populate the SDTMIG variable AGSTDTC in ISO 8601 format.",AGSTTIM,18,Start Time,What was the [procedure/assessment agent] start time?,Char,"['ROUTE', 'CMROUTE']"
18,Interventions,"This SDTM class captures investigational, therapeutic and other treatments that are administered to the subject (with some actual or expected physiological effect) either as specified by the study protocol (e.g., exposure to study drug), coincident with the study assessment period (e.g., concomitant medications), or self-administered by the subject (such as use of alcohol, tobacco, or caffeine). (Source: CDISC Controlled Terminology, GNRLOBSC, C103374, 2023-06-30)",AG,Procedure Agents,"An interventions domain that contains the agents administered to the subject as part of a procedure or assessment, as opposed to drugs, medications and therapies administered with therapeutic intent. (Source: CDISC Controlled Terminology, DOMAIN, C117755, 2023-6-28)",O,Indication the procedure/assessment agent was administered prior to [AGSTTPT] or prior to the date in DM.RFSTDTC.,"Sponsors may collect this information rather than start dates. See Section 3.7, Mapping Relative Times from Collection to Submissions, and the SDTMIG for more information.",Prior Procedure Agents,"This does not map directly to an SDTMIG variable. May be used to populate a value into an SDTMIG relative timing variable such as AGSTRF or AGSTRTPT. When populating AGSTRF or AGSTRTPT, if the value of the CDASH field AGPRIOR is ""Y"", a value from the CDISC CT (STENRF) may be used. When AGPRIOR refers to the Study Reference Period (defined in DM.RFSTDTC to DM.RFENDTC), the SDTMIG variable AGSTRF should be populated. When AGPRIOR is compared to another time point, the SDTMIG variables AGSTRTPT and AGSTTPT should be used. Note: AGSTRTPT must be in reference to the time-point anchor described in AGSTTPT.",AGPRIOR,19,Prior to [AGSTTPT]; prior to study,Was the [procedure/assessment agent] administered prior to AGSTTPT? Was the procedure/assessment agent given prior to study start?,Char,['NY']
19,Interventions,"This SDTM class captures investigational, therapeutic and other treatments that are administered to the subject (with some actual or expected physiological effect) either as specified by the study protocol (e.g., exposure to study drug), coincident with the study assessment period (e.g., concomitant medications), or self-administered by the subject (such as use of alcohol, tobacco, or caffeine). (Source: CDISC Controlled Terminology, GNRLOBSC, C103374, 2023-06-30)",AG,Procedure Agents,"An interventions domain that contains the agents administered to the subject as part of a procedure or assessment, as opposed to drugs, medications and therapies administered with therapeutic intent. (Source: CDISC Controlled Terminology, DOMAIN, C117755, 2023-6-28)",R/C,Indication the procedure/assessment agent is ongoing when no end date is provided.,"This box should be checked to indicate that the procedure agent has not stopped at the time of data collection. It is expected that every recorded procedure agent should have either an end date or be checked as ongoing, but not both. However, in cases where ongoing procedure agents are not permitted, it may not be necessary to include an Ongoing field in the CRF. See Section 3.7, Mapping Relative Times from Collection to Submissions, for more information about collecting relative date/time; see the SDTMIG for information about mapping relative times.",Ongoing Procedure Agents,"This does not map directly to an SDTMIG variable. May be used to populate a value into an SDTMIG relative timing variable such as AGENRF or AGENRTPT. When populating AGENRF, if the value of AGONGO is ""Y"", the values of ""DURING"", ""AFTER"" or ""DURING/AFTER"" may be used. When populating AGENRTPT, if the value of AGONGO is ""Y"", the value of ""ONGOING"" may be used. When AGONGO refers to the Study Reference Period (defined in DM.RFSTDTC to DM.RFENDTC), the SDTMIG variable AGENRF should be populated. When AGONGO is used in conjunction with another time point, the SDTMIG variables AGENRTPT and AGENTPT should be used. Note: AGENRTPT must be in reference to the time-point anchor described in AGENTPT.",AGONGO,20,Ongoing (as of [the study-specific time point or period]),Was the [procedure/assessment agent] ongoing (as of the [study-specific time point or period])?,Char,['NY']
20,Interventions,"This SDTM class captures investigational, therapeutic and other treatments that are administered to the subject (with some actual or expected physiological effect) either as specified by the study protocol (e.g., exposure to study drug), coincident with the study assessment period (e.g., concomitant medications), or self-administered by the subject (such as use of alcohol, tobacco, or caffeine). (Source: CDISC Controlled Terminology, GNRLOBSC, C103374, 2023-06-30)",AG,Procedure Agents,"An interventions domain that contains the agents administered to the subject as part of a procedure or assessment, as opposed to drugs, medications and therapies administered with therapeutic intent. (Source: CDISC Controlled Terminology, DOMAIN, C117755, 2023-6-28)",R/C,"The date the procedure/assessment agent was stopped/ended, represented in an unambiguous date format (e.g. DD-MON-YYYY).","The assumption is that sponsors should either have an end date or will indicate that the procedure agent was ongoing at the time of collection or at the end of the study. However, in cases where the end date can be determined from dates collected elsewhere in the CRF it is not necessary to include an end date in the CRF. For example, if all procedure agents are administered only once during a trial, the end date will be the same as the start date.",Procedure Agents End Date,"This does not map directly to an SDTMIG variable. For the SDTM submission dataset, concatenate all collected CDASH END DATE and TIME components and populate the SDTMIG variable CMENDTC in ISO 8601 format.",AGENDAT,21,End Date,What was the [procedure/assessment agent's] end date?,Char,['NY']
21,Interventions,"This SDTM class captures investigational, therapeutic and other treatments that are administered to the subject (with some actual or expected physiological effect) either as specified by the study protocol (e.g., exposure to study drug), coincident with the study assessment period (e.g., concomitant medications), or self-administered by the subject (such as use of alcohol, tobacco, or caffeine). (Source: CDISC Controlled Terminology, GNRLOBSC, C103374, 2023-06-30)",AG,Procedure Agents,"An interventions domain that contains the agents administered to the subject as part of a procedure or assessment, as opposed to drugs, medications and therapies administered with therapeutic intent. (Source: CDISC Controlled Terminology, DOMAIN, C117755, 2023-6-28)",R/C,"The time the concomitant medication/treatment/therapy was started, represented in an unambiguous time format (e.g., hh:mm:ss).","Recommend collecting the time a procedure agent was ended only when a protocol or data collection scenarios require it or the subject records the end time in a diary. Typically, an end time is not collected unless the subject is under the direct care of the site at the time a procedure agent is stopped.",Procedure Agents End Time,"This does not map directly to an SDTMIG variable. For the SDTM submission dataset, concatenate all collected CDASH END DATE and TIME components and populate the SDTMIG variable AGENDTC in ISO 8601 format.",AGENTIM,22,End Time,What was the [procedure/assessment agent's] end time?,Char,['NY']
22,Interventions,"This SDTM class captures investigational, therapeutic and other treatments that are administered to the subject (with some actual or expected physiological effect) either as specified by the study protocol (e.g., exposure to study drug), coincident with the study assessment period (e.g., concomitant medications), or self-administered by the subject (such as use of alcohol, tobacco, or caffeine). (Source: CDISC Controlled Terminology, GNRLOBSC, C103374, 2023-06-30)",AG,Procedure Agents,"An interventions domain that contains the agents administered to the subject as part of a procedure or assessment, as opposed to drugs, medications and therapies administered with therapeutic intent. (Source: CDISC Controlled Terminology, DOMAIN, C117755, 2023-6-28)",O,"The dictionary or sponsor-defined standardized text description of the topic variable (AGTRT) or the modified topic variable (AGMODIFY), if applicable.","This is typically not a data collection field that will appear on the CRF. If the sponsor chooses to code the procedure, the sponsor will populate this through the coding process. If PRPRESP is used, and the information about a specific standardized procedure name is being solicited, the data from AGTRT may map directly to the SDTMIG AGDECOD variable.",Standardized Agent Name,Maps directly to the SDTMIG variable listed in the SDTMIG Target column.,AGDECOD,23,End Time,What was the [procedure/assessment agent's] end time?,Char,['NY']
23,Interventions,"This SDTM class captures investigational, therapeutic and other treatments that are administered to the subject (with some actual or expected physiological effect) either as specified by the study protocol (e.g., exposure to study drug), coincident with the study assessment period (e.g., concomitant medications), or self-administered by the subject (such as use of alcohol, tobacco, or caffeine). (Source: CDISC Controlled Terminology, GNRLOBSC, C103374, 2023-06-30)",AG,Procedure Agents,"An interventions domain that contains the agents administered to the subject as part of a procedure or assessment, as opposed to drugs, medications and therapies administered with therapeutic intent. (Source: CDISC Controlled Terminology, DOMAIN, C117755, 2023-6-28)",O,"The class for the agent, often obtained from a coding dictionary.",This field does not typically appear on the CRF. Sponsors will populate this through the coding process. This would generally be the class used for analysis.,AG Agent Class,Maps directly to the SDTMIG variable listed in the SDTMIG Target column.,AGCLAS,24,End Time,What was the [procedure/assessment agent's] end time?,Char,['NY']
24,Interventions,"This SDTM class captures investigational, therapeutic and other treatments that are administered to the subject (with some actual or expected physiological effect) either as specified by the study protocol (e.g., exposure to study drug), coincident with the study assessment period (e.g., concomitant medications), or self-administered by the subject (such as use of alcohol, tobacco, or caffeine). (Source: CDISC Controlled Terminology, GNRLOBSC, C103374, 2023-06-30)",AG,Procedure Agents,"An interventions domain that contains the agents administered to the subject as part of a procedure or assessment, as opposed to drugs, medications and therapies administered with therapeutic intent. (Source: CDISC Controlled Terminology, DOMAIN, C117755, 2023-6-28)",O,The assigned dictionary code for the class of agent.,This field does not typically appear on the CRF. Sponsors will populate this through the coding process. This would generally be the class code used for analysis.,AG Agent Class Code,Maps directly to the SDTMIG variable listed in the SDTMIG Target column.,AGCLASCD,25,End Time,What was the [procedure/assessment agent's] end time?,Char,['NY']
25,Interventions,"This SDTM class captures investigational, therapeutic and other treatments that are administered to the subject (with some actual or expected physiological effect) either as specified by the study protocol (e.g., exposure to study drug), coincident with the study assessment period (e.g., concomitant medications), or self-administered by the subject (such as use of alcohol, tobacco, or caffeine). (Source: CDISC Controlled Terminology, GNRLOBSC, C103374, 2023-06-30)",CM,Concomitant/Prior Medications,"An interventions domain that contains concomitant and prior medications used by the subject, such as those given on an as needed basis or condition-appropriate medications. (Source: CDISC Controlled Terminology, DOMAIN, C49568, 2023-6-28)",HR,A unique identifier for a study.,"Although this field is not typically captured on a CRF, it should be displayed clearly on the CRF and/or the EDC system. This field can be included into the database or populated during SDTM-based dataset creation before submission.",Study Identifier,Maps directly to the SDTMIG variable listed in the SDTMIG Target column.,STUDYID,1,[Protocol/Study],What is the study identifier?,Char,['NY']
26,Interventions,"This SDTM class captures investigational, therapeutic and other treatments that are administered to the subject (with some actual or expected physiological effect) either as specified by the study protocol (e.g., exposure to study drug), coincident with the study assessment period (e.g., concomitant medications), or self-administered by the subject (such as use of alcohol, tobacco, or caffeine). (Source: CDISC Controlled Terminology, GNRLOBSC, C103374, 2023-06-30)",CM,Concomitant/Prior Medications,"An interventions domain that contains concomitant and prior medications used by the subject, such as those given on an as needed basis or condition-appropriate medications. (Source: CDISC Controlled Terminology, DOMAIN, C49568, 2023-6-28)",HR,A unique identifier for a site within a study.,"Paper: For single-site studies, this is typically preprinted in the header of each CRF page. For studies with multiple sites, this field may be left blank so that the number can be recorded by the site, or it may be preprinted on CRFs that are shipped to each site. \n EDC: This should be prepopulated.",Study Site Identifier,Maps directly to the SDTMIG variable listed in the SDTMIG Target column.,SITEID,2,Site (Identifier),What is the site identifier?,Char,['NY']
27,Interventions,"This SDTM class captures investigational, therapeutic and other treatments that are administered to the subject (with some actual or expected physiological effect) either as specified by the study protocol (e.g., exposure to study drug), coincident with the study assessment period (e.g., concomitant medications), or self-administered by the subject (such as use of alcohol, tobacco, or caffeine). (Source: CDISC Controlled Terminology, GNRLOBSC, C103374, 2023-06-30)",CM,Concomitant/Prior Medications,"An interventions domain that contains concomitant and prior medications used by the subject, such as those given on an as needed basis or condition-appropriate medications. (Source: CDISC Controlled Terminology, DOMAIN, C49568, 2023-6-28)",HR,A unique subject identifier within a site and a study.,"Paper: This is typically recorded in the header of each CRF page. \n EDC: The subject identifiers may be system-generated. \n This CDASH variable is typically collected in all CDASH domains. However, this CDASH variable is populated only in the SDTMIG DM domain. For more information, refer to the SDTMIG.",Subject Identifier for the Study,Maps directly to the SDTMIG variable listed in the SDTMIG Target column.,SUBJID,3,[Subject/Participant] (Identifier),What [is/was] the (study) [subject/participant] identifier?,Char,['NY']
28,Interventions,"This SDTM class captures investigational, therapeutic and other treatments that are administered to the subject (with some actual or expected physiological effect) either as specified by the study protocol (e.g., exposure to study drug), coincident with the study assessment period (e.g., concomitant medications), or self-administered by the subject (such as use of alcohol, tobacco, or caffeine). (Source: CDISC Controlled Terminology, GNRLOBSC, C103374, 2023-06-30)",CM,Concomitant/Prior Medications,"An interventions domain that contains concomitant and prior medications used by the subject, such as those given on an as needed basis or condition-appropriate medications. (Source: CDISC Controlled Terminology, DOMAIN, C49568, 2023-6-28)",O,A grouping of topic-variable values based on user-defined characteristics.,"Sponsor-defined controlled terminology. This would most commonly be either a heading or a preprinted category value on the CRF, not a question to which the site would provide an answer. If a question is asked, the response would typically be a sponsor-defined codelist. If the form is laid out as a grid, then words such as ""Category"" can be included in the column heading.",Category for Medication,Maps directly to the SDTMIG variable listed in the SDTMIG Target column.,CMCAT,4,(Concomitant) [Medication/Treatment/Therapy Category]; NULL,What is the category for the (concomitant) [medication/treatment/therapy]?,Char,['NY']
29,Interventions,"This SDTM class captures investigational, therapeutic and other treatments that are administered to the subject (with some actual or expected physiological effect) either as specified by the study protocol (e.g., exposure to study drug), coincident with the study assessment period (e.g., concomitant medications), or self-administered by the subject (such as use of alcohol, tobacco, or caffeine). (Source: CDISC Controlled Terminology, GNRLOBSC, C103374, 2023-06-30)",CM,Concomitant/Prior Medications,"An interventions domain that contains concomitant and prior medications used by the subject, such as those given on an as needed basis or condition-appropriate medications. (Source: CDISC Controlled Terminology, DOMAIN, C49568, 2023-6-28)",O,A sub-division of the CMCAT values based on user-defined characteristics.,Sponsor-defined controlled terminology. This would most commonly be preprinted on the CRF or screen and prepopulated in the data management system. This is not typically a question to which the site would provide an answer.,Subcategory for Medication,Maps directly to the SDTMIG variable listed in the SDTMIG Target column.,CMSCAT,5,(Concomitant) [Medication/Treatment/Therapy subcategory]; NULL,What is the subcategory for the (concomitant) [medication/treatment/therapy]?,Char,['NY']
30,Interventions,"This SDTM class captures investigational, therapeutic and other treatments that are administered to the subject (with some actual or expected physiological effect) either as specified by the study protocol (e.g., exposure to study drug), coincident with the study assessment period (e.g., concomitant medications), or self-administered by the subject (such as use of alcohol, tobacco, or caffeine). (Source: CDISC Controlled Terminology, GNRLOBSC, C103374, 2023-06-30)",CM,Concomitant/Prior Medications,"An interventions domain that contains concomitant and prior medications used by the subject, such as those given on an as needed basis or condition-appropriate medications. (Source: CDISC Controlled Terminology, DOMAIN, C49568, 2023-6-28)",O,An indication of whether any (concomitant) medications/treatments/therapies were taken/given.,The intent/purpose of collecting this field is to help with data cleaning and monitoring. It provides verification that all other fields on the CRF were deliberately left blank.,Any Concomitant Medications Taken,Does not map to an SDTMIG variable. The SDTM annotated CRF indicates that this field is NOT SUBMITTED.,CMYN,6,Any (Concomitant) [Medication(s)/Treatment(s)/Therapy(ies)],Were/Was any (concomitant) [medication(s)/treatment(s)/therapy(ies)] taken?,Char,['NY']
31,Interventions,"This SDTM class captures investigational, therapeutic and other treatments that are administered to the subject (with some actual or expected physiological effect) either as specified by the study protocol (e.g., exposure to study drug), coincident with the study assessment period (e.g., concomitant medications), or self-administered by the subject (such as use of alcohol, tobacco, or caffeine). (Source: CDISC Controlled Terminology, GNRLOBSC, C103374, 2023-06-30)",CM,Concomitant/Prior Medications,"An interventions domain that contains concomitant and prior medications used by the subject, such as those given on an as needed basis or condition-appropriate medications. (Source: CDISC Controlled Terminology, DOMAIN, C49568, 2023-6-28)",O,"A sponsor-defined identifier. In CDASH, this is typically used for preprinted or auto-generated numbers on the CRF, or any other type of identifier that does not already have a defined CDASH identifier field.","Because SPID is a sponsor-defined identifier, conformance to Question Text or Item Prompt is not applicable. Typically used as an identifier in a data query to communicate clearly to the site the specific record in question or to reconcile concomitant medication/treatment records with AEs and/or MH. May be used to record preprinted number (e.g. line number, record number) on the CRF. This field may be populated by the sponsor's data collection system.",CM Sponsor-Defined Identifier,Maps directly to the SDTMIG variable listed in the SDTMIG Target column. May be used to create RELREC to link this record with a record in another domain.,CMSPID,7,[Sponsor defined],[Sponsor-defined question],Char,['NY']
32,Interventions,"This SDTM class captures investigational, therapeutic and other treatments that are administered to the subject (with some actual or expected physiological effect) either as specified by the study protocol (e.g., exposure to study drug), coincident with the study assessment period (e.g., concomitant medications), or self-administered by the subject (such as use of alcohol, tobacco, or caffeine). (Source: CDISC Controlled Terminology, GNRLOBSC, C103374, 2023-06-30)",CM,Concomitant/Prior Medications,"An interventions domain that contains concomitant and prior medications used by the subject, such as those given on an as needed basis or condition-appropriate medications. (Source: CDISC Controlled Terminology, DOMAIN, C49568, 2023-6-28)",HR,Verbatim medication name or treatments (include only treatments with data collection characteristics similar to medications).,"In most cases, the verbatim drug names or treatment will be coded to a standard dictionary (e.g., WHODrug) after data have been collected on the CRF. For the collection of verbatim drug name or treatments, the recommendation is for sites to provide the full trade or proprietary name, which is more exact than the generic. The full trade name provides the base generic and the appropriate salt for that particular drug. In addition, for coding purposes, it helps with ATC selection (e.g., Tylenol with codeine #1 has a different ATC code than Tylenol with codeine #3). This field can be used for either prior or concomitant medication/treatments.","Reported Name of Drug, Med, or Therapy",Maps directly to the SDTMIG variable listed in the SDTMIG Target column.,CMTRT,8,(Concomitant) [Medication/Treatment/Therapy],What was the (concomitant) [medication/treatment/therapy] (name/term)?,Char,['NY']
33,Interventions,"This SDTM class captures investigational, therapeutic and other treatments that are administered to the subject (with some actual or expected physiological effect) either as specified by the study protocol (e.g., exposure to study drug), coincident with the study assessment period (e.g., concomitant medications), or self-administered by the subject (such as use of alcohol, tobacco, or caffeine). (Source: CDISC Controlled Terminology, GNRLOBSC, C103374, 2023-06-30)",CM,Concomitant/Prior Medications,"An interventions domain that contains concomitant and prior medications used by the subject, such as those given on an as needed basis or condition-appropriate medications. (Source: CDISC Controlled Terminology, DOMAIN, C49568, 2023-6-28)",O,An indication that a specific intervention or a group of interventions is prespecified on a CRF.,"For prespecified interventions, this is a hidden field on a CRF defaulted to ""Y"", or added during the SDTM dataset creation. If a study collects both prespecified and free-text interventions, the value of CMPRESP should be ""Y"" for all prespecified interventions and null for interventions reported as free text.",CM Prespecified,Maps directly to the SDTMIG variable listed in the SDTMIG Target column.,CMPRESP,9,(Concomitant) [Medication/Treatment/Therapy],What was the (concomitant) [medication/treatment/therapy] (name/term)?,Char,['NY']
34,Interventions,"This SDTM class captures investigational, therapeutic and other treatments that are administered to the subject (with some actual or expected physiological effect) either as specified by the study protocol (e.g., exposure to study drug), coincident with the study assessment period (e.g., concomitant medications), or self-administered by the subject (such as use of alcohol, tobacco, or caffeine). (Source: CDISC Controlled Terminology, GNRLOBSC, C103374, 2023-06-30)",CM,Concomitant/Prior Medications,"An interventions domain that contains concomitant and prior medications used by the subject, such as those given on an as needed basis or condition-appropriate medications. (Source: CDISC Controlled Terminology, DOMAIN, C49568, 2023-6-28)",O,An indication whether the prespecified medication/treatment/therapy (CMTRT) or the group of medications/treatments/therapies was administered when information about the occurrence of a specific intervention was solicited.,CMOCCUR is used to report the occurrence of a prespecified medication/treatment. CMOCCUR is not used for spontaneously free-text reported concomitant medication/treatments. The site should be able to indicate that the question was not asked or answered.,CM Occurrence,"Maps directly to the SDTMIG variable listed in the SDTMIG Target column. If the question was not asked or answered, populate the SDTMIG variable CMSTAT with ""NOT DONE"".",CMOCCUR,10,[Specific (Concomitant) [Medication/Treatment/Therapy],Did the subject take [prespecified (concomitant) medication/treatment/therapy/dose]?; Has the subject taken [prespecified (concomitant) medication/treatment/therapy/dose]?,Char,['NY']
35,Interventions,"This SDTM class captures investigational, therapeutic and other treatments that are administered to the subject (with some actual or expected physiological effect) either as specified by the study protocol (e.g., exposure to study drug), coincident with the study assessment period (e.g., concomitant medications), or self-administered by the subject (such as use of alcohol, tobacco, or caffeine). (Source: CDISC Controlled Terminology, GNRLOBSC, C103374, 2023-06-30)",CM,Concomitant/Prior Medications,"An interventions domain that contains concomitant and prior medications used by the subject, such as those given on an as needed basis or condition-appropriate medications. (Source: CDISC Controlled Terminology, DOMAIN, C49568, 2023-6-28)",O,Medication ingredients.,"This may be collected in addition to the medication/treatment name. Collecting this provides more detailed information when coding to a medication dictionary like WHODrug Dictionary Enhanced Format C, which codes to the ingredient level for many trade-name medications. For example, depending on the country where it is manufactured, the active ingredients in the medication dolmen may be different: In Spain, acetylsalicylic acid, ascorbic acid, codeine phosphate; in Italy and Czech Republic, tenoxicam; in Estonia and Latvia, dexketoprofen trometamol.",Concomitant Meds Active Ingredients,Does not map to an SDTMIG variable. The SDTM annotated CRF indicates that this field is NOT SUBMITTED.,CMINGRD,11,Active Ingredients,What were the active ingredients?,Char,['NY']
36,Interventions,"This SDTM class captures investigational, therapeutic and other treatments that are administered to the subject (with some actual or expected physiological effect) either as specified by the study protocol (e.g., exposure to study drug), coincident with the study assessment period (e.g., concomitant medications), or self-administered by the subject (such as use of alcohol, tobacco, or caffeine). (Source: CDISC Controlled Terminology, GNRLOBSC, C103374, 2023-06-30)",CM,Concomitant/Prior Medications,"An interventions domain that contains concomitant and prior medications used by the subject, such as those given on an as needed basis or condition-appropriate medications. (Source: CDISC Controlled Terminology, DOMAIN, C49568, 2023-6-28)",R/C,"The condition, disease, symptom, or disorder that the concomitant (non-study) medication/treatment/therapy was used to address or investigate (e.g., why the medication/treatment/therapy was taken or administered).","This is not the pharmacological/therapeutic classification of an agent (e.g., antibiotic, analgesic), but rather the reason for its administration to the subject. This additional information is collected on the CRF when sponsors want to capture the reason(s) a subject took a medication/treatment. This information could be used as deemed appropriate for coding; analysis (e.g., in the classification of medications); reconciling medications/treatments taken by a subject with provided medical history; and/or AEs/SAEs, as part of the data clean-up and monitoring process.",CM Indication,Maps directly to the SDTMIG variable listed in the SDTMIG Target column.,CMINDC,12,Indication,For what indication was the (concomitant) [medication/treatment/therapy] taken?,Char,['NY']
37,Interventions,"This SDTM class captures investigational, therapeutic and other treatments that are administered to the subject (with some actual or expected physiological effect) either as specified by the study protocol (e.g., exposure to study drug), coincident with the study assessment period (e.g., concomitant medications), or self-administered by the subject (such as use of alcohol, tobacco, or caffeine). (Source: CDISC Controlled Terminology, GNRLOBSC, C103374, 2023-06-30)",CM,Concomitant/Prior Medications,"An interventions domain that contains concomitant and prior medications used by the subject, such as those given on an as needed basis or condition-appropriate medications. (Source: CDISC Controlled Terminology, DOMAIN, C49568, 2023-6-28)",O,Identifier for the adverse event that is the indication for this medication/treatment/therapy.,The intent is to establish a link between the medication/treatment and the AE that was reported. CMAENO can be used to identify a relationship between records in CM dataset and records in the AE dataset. See the SDTMIG for information on RELREC.,Related Adverse Event ID,"This does not map directly to an SDTMIG variable. For SDTM submission datasets, may be used to create RELREC to link this record with a record in the AE domain.",CMAENO,13,Adverse Event Identifier,What was the identifier for the adverse event(s) for which the (concomitant) [medication/treatment/therapy] was taken?,Char,['NY']
38,Interventions,"This SDTM class captures investigational, therapeutic and other treatments that are administered to the subject (with some actual or expected physiological effect) either as specified by the study protocol (e.g., exposure to study drug), coincident with the study assessment period (e.g., concomitant medications), or self-administered by the subject (such as use of alcohol, tobacco, or caffeine). (Source: CDISC Controlled Terminology, GNRLOBSC, C103374, 2023-06-30)",CM,Concomitant/Prior Medications,"An interventions domain that contains concomitant and prior medications used by the subject, such as those given on an as needed basis or condition-appropriate medications. (Source: CDISC Controlled Terminology, DOMAIN, C49568, 2023-6-28)",O,Identifier for the medical history condition that is the indication for this medication/treatment/therapy.,The intent is to establish a link between the medical history condition and the medication/treatment taken for the condition. CMMHNO can be used to identify a relationship between records in the CM dataset and records in the MH dataset. See the SDTMIG for information on RELREC.,Related Medical History Event ID,"This does not map directly to an SDTMIG variable. For SDTM submission datasets, may be used to create RELREC to link this record with a record in the MH domain.",CMMHNO,14,Medical History Event Identifier,What was the identifier for the medical history event(s) for which the (concomitant) [medication/treatment/therapy] was taken?,Char,['NY']
39,Interventions,"This SDTM class captures investigational, therapeutic and other treatments that are administered to the subject (with some actual or expected physiological effect) either as specified by the study protocol (e.g., exposure to study drug), coincident with the study assessment period (e.g., concomitant medications), or self-administered by the subject (such as use of alcohol, tobacco, or caffeine). (Source: CDISC Controlled Terminology, GNRLOBSC, C103374, 2023-06-30)",CM,Concomitant/Prior Medications,"An interventions domain that contains concomitant and prior medications used by the subject, such as those given on an as needed basis or condition-appropriate medications. (Source: CDISC Controlled Terminology, DOMAIN, C49568, 2023-6-28)",O,"The dose of medication/treatment (e.g., --TRT ) given at one time, represented as a numeric value.","Used when the dose/amount taken/administered/consumed has only numeric entries. If non-numeric entries are possible, use the CDASH field CMDSTXT.",CM Dose per Administration,Maps directly to the SDTMIG variable listed in the SDTMIG Target column.,CMDOSE,15,[Dose/Amount] (per administration),What was the individual dose (of the concomitant [medication/treatment/therapy] per administration)?,Num,['NY']
40,Interventions,"This SDTM class captures investigational, therapeutic and other treatments that are administered to the subject (with some actual or expected physiological effect) either as specified by the study protocol (e.g., exposure to study drug), coincident with the study assessment period (e.g., concomitant medications), or self-administered by the subject (such as use of alcohol, tobacco, or caffeine). (Source: CDISC Controlled Terminology, GNRLOBSC, C103374, 2023-06-30)",CM,Concomitant/Prior Medications,"An interventions domain that contains concomitant and prior medications used by the subject, such as those given on an as needed basis or condition-appropriate medications. (Source: CDISC Controlled Terminology, DOMAIN, C49568, 2023-6-28)",O,The dose of medication/treatment taken per administration.,"Defining this data collection field as a dose text field allows for flexibility in capturing dose entries as numbers, text, or ranges. The data collected in this text-format field should be separated or mapped to either SDTMIG CMDOSE if numeric or CMDOSTXT if text.",Concomitant Meds Dose Description,"This does not map directly to an SDTMIG variable. Numeric values map to CMDOSE in SDTM. Non-numeric values (e.g., ""200-400"") map to CMDOSTXT in SDTM.",CMDSTXT,16,Dose,What was the individual dose of the (concomitant) [medication/treatment/therapy]?,Char,['NY']
41,Interventions,"This SDTM class captures investigational, therapeutic and other treatments that are administered to the subject (with some actual or expected physiological effect) either as specified by the study protocol (e.g., exposure to study drug), coincident with the study assessment period (e.g., concomitant medications), or self-administered by the subject (such as use of alcohol, tobacco, or caffeine). (Source: CDISC Controlled Terminology, GNRLOBSC, C103374, 2023-06-30)",CM,Concomitant/Prior Medications,"An interventions domain that contains concomitant and prior medications used by the subject, such as those given on an as needed basis or condition-appropriate medications. (Source: CDISC Controlled Terminology, DOMAIN, C49568, 2023-6-28)",O,"The total amount of CMTRT taken over a day, using the units in CMDOSU.","For use when only total daily dose is collected on the CRF. For general medications/treatments, it is not recommended to use Total Daily Dose. Instead, this can be calculated from other fields (e.g., Units, Dose, Frequency).",CM Total Daily Dose,Maps directly to the SDTMIG variable listed in the SDTMIG Target column.,CMDOSTOT,17,Total Daily Dose,What was the total daily dose of the (concomitant) [medication/treatment/therapy]?,Num,['NY']
42,Interventions,"This SDTM class captures investigational, therapeutic and other treatments that are administered to the subject (with some actual or expected physiological effect) either as specified by the study protocol (e.g., exposure to study drug), coincident with the study assessment period (e.g., concomitant medications), or self-administered by the subject (such as use of alcohol, tobacco, or caffeine). (Source: CDISC Controlled Terminology, GNRLOBSC, C103374, 2023-06-30)",CM,Concomitant/Prior Medications,"An interventions domain that contains concomitant and prior medications used by the subject, such as those given on an as needed basis or condition-appropriate medications. (Source: CDISC Controlled Terminology, DOMAIN, C49568, 2023-6-28)",R/C,"The unit associated with the concomitant medication/treatment/therapy taken (e.g., mg in ""2 mg 3 times per day"").","When sponsors collect data for amount of dose taken (i.e., Dose, Total Daily Dose), Unit must be collected as well (if applicable).",CM Dose Units,Maps directly to the SDTMIG variable listed in the SDTMIG Target column.,CMDOSU,18,(Dose) Unit,What is the unit (for the dose of concomitant [medication/treatment/therapy])?,Char,"['UNIT', 'CMDOSU']"
43,Interventions,"This SDTM class captures investigational, therapeutic and other treatments that are administered to the subject (with some actual or expected physiological effect) either as specified by the study protocol (e.g., exposure to study drug), coincident with the study assessment period (e.g., concomitant medications), or self-administered by the subject (such as use of alcohol, tobacco, or caffeine). (Source: CDISC Controlled Terminology, GNRLOBSC, C103374, 2023-06-30)",CM,Concomitant/Prior Medications,"An interventions domain that contains concomitant and prior medications used by the subject, such as those given on an as needed basis or condition-appropriate medications. (Source: CDISC Controlled Terminology, DOMAIN, C49568, 2023-6-28)",O,The pharmaceutical dosage form in which the CMTRT is physically presented.,"Some drugs have multiple forms; this field may be needed to code the drug to an ATC level. However, in general, this level of detail should not be necessary except for medications/treatments of interest.",CM Dose Form,Maps directly to the SDTMIG variable listed in the SDTMIG Target column.,CMDOSFRM,19,Dose Form,What was the dose form of the (concomitant) [medication/treatment/therapy]?,Char,"['FRM', 'CMDOSFRM']"
44,Interventions,"This SDTM class captures investigational, therapeutic and other treatments that are administered to the subject (with some actual or expected physiological effect) either as specified by the study protocol (e.g., exposure to study drug), coincident with the study assessment period (e.g., concomitant medications), or self-administered by the subject (such as use of alcohol, tobacco, or caffeine). (Source: CDISC Controlled Terminology, GNRLOBSC, C103374, 2023-06-30)",CM,Concomitant/Prior Medications,"An interventions domain that contains concomitant and prior medications used by the subject, such as those given on an as needed basis or condition-appropriate medications. (Source: CDISC Controlled Terminology, DOMAIN, C49568, 2023-6-28)",O,The number of doses given/administered/taken during a specific interval.,"The frequency of the concomitant medication/treatment. When collected, the recommendation is to collect dosing information in separate fields (e.g., CMDOSE, CMDOSEU, CMDOSFRQ) for specific and consistent data collection and to enable programmatically using these data.",CM Dosing Frequency per Interval,Maps directly to the SDTMIG variable listed in the SDTMIG Target column.,CMDOSFRQ,20,Frequency,What was the frequency of the (concomitant) [medication/treatment/therapy]?,Char,"['FREQ', 'CMDOSFRQ']"
45,Interventions,"This SDTM class captures investigational, therapeutic and other treatments that are administered to the subject (with some actual or expected physiological effect) either as specified by the study protocol (e.g., exposure to study drug), coincident with the study assessment period (e.g., concomitant medications), or self-administered by the subject (such as use of alcohol, tobacco, or caffeine). (Source: CDISC Controlled Terminology, GNRLOBSC, C103374, 2023-06-30)",CM,Concomitant/Prior Medications,"An interventions domain that contains concomitant and prior medications used by the subject, such as those given on an as needed basis or condition-appropriate medications. (Source: CDISC Controlled Terminology, DOMAIN, C49568, 2023-6-28)",R/C,The route of administration of the concomitant medication/treatment/therapy.,"This additional information may be important to collect on the CRF when the sponsor wants to capture a medication's/treatment's route of administration, for purposes such as coding; also, the medication/treatment may have more than 1 route. Some companies may use route in coding medications/treatments, to be able to choose a precise preferred name and ATC code.",CM Route of Administration,Maps directly to the SDTMIG variable listed in the SDTMIG Target column.,CMROUTE,21,Route,What was the route of administration of the (concomitant) [medication/treatment/therapy]?,Char,"['ROUTE', 'CMROUTE']"
46,Interventions,"This SDTM class captures investigational, therapeutic and other treatments that are administered to the subject (with some actual or expected physiological effect) either as specified by the study protocol (e.g., exposure to study drug), coincident with the study assessment period (e.g., concomitant medications), or self-administered by the subject (such as use of alcohol, tobacco, or caffeine). (Source: CDISC Controlled Terminology, GNRLOBSC, C103374, 2023-06-30)",CM,Concomitant/Prior Medications,"An interventions domain that contains concomitant and prior medications used by the subject, such as those given on an as needed basis or condition-appropriate medications. (Source: CDISC Controlled Terminology, DOMAIN, C49568, 2023-6-28)",R/C,"The start date is when the concomitant medication/treatment/therapy was first taken, represented in an unambiguous date format (e.g., DD-MON-YYYY).","The assumption is that sponsors should either have a Start Date or will indicate that the medication or therapy was started before, during, or after the study period. The preferred method is to collect a complete Start Date. Partial dates (e.g., providing year only) for medications/treatment started a considerable amount of time prior to the start of study are acceptable.",Concomitant Meds Start Date,"This does not map directly to an SDTMIG variable. For the SDTM submission dataset, concatenate all collected CDASH START DATE and TIME components and populate the SDTMIG variable CMSTDTC in ISO 8601 format.",CMSTDAT,22,Start Date,What was the (concomitant) [medication/treatment/therapy/dose] start date?,Char,"['ROUTE', 'CMROUTE']"
47,Interventions,"This SDTM class captures investigational, therapeutic and other treatments that are administered to the subject (with some actual or expected physiological effect) either as specified by the study protocol (e.g., exposure to study drug), coincident with the study assessment period (e.g., concomitant medications), or self-administered by the subject (such as use of alcohol, tobacco, or caffeine). (Source: CDISC Controlled Terminology, GNRLOBSC, C103374, 2023-06-30)",CM,Concomitant/Prior Medications,"An interventions domain that contains concomitant and prior medications used by the subject, such as those given on an as needed basis or condition-appropriate medications. (Source: CDISC Controlled Terminology, DOMAIN, C49568, 2023-6-28)",R/C,"The time the concomitant medication/treatment/therapy was started, represented in an unambiguous time format (e.g., hh:mm:ss).","Recommend collecting the time a concomitant medication/treatment was started only when a protocol or data collection scenarios supports it. Typically, a start time is not collected unless the subject is under the direct care of the site at the time a concomitant medication/treatment administered or the subject records the start time in a diary.",Concomitant Meds Start Time,"This does not map directly to an SDTMIG variable. For the SDTM submission dataset, concatenate all collected CDASH START DATE and TIME components and populate the SDTMIG variable CMSTDTC in ISO 8601 format.",CMSTTIM,23,Start Time,What was the (concomitant) [medication/treatment/therapy/dose] start time?,Char,"['ROUTE', 'CMROUTE']"
48,Interventions,"This SDTM class captures investigational, therapeutic and other treatments that are administered to the subject (with some actual or expected physiological effect) either as specified by the study protocol (e.g., exposure to study drug), coincident with the study assessment period (e.g., concomitant medications), or self-administered by the subject (such as use of alcohol, tobacco, or caffeine). (Source: CDISC Controlled Terminology, GNRLOBSC, C103374, 2023-06-30)",CM,Concomitant/Prior Medications,"An interventions domain that contains concomitant and prior medications used by the subject, such as those given on an as needed basis or condition-appropriate medications. (Source: CDISC Controlled Terminology, DOMAIN, C49568, 2023-6-28)",O,Indication the concomitant medication/treatment/therapy was given or taken prior to [CMSTTPT] or prior to the date in DM.RFSTDTC.,"Sponsors may collect this information rather than start dates. See Section 3.7, Mapping Relative Times from Collection to Submissions, and the SDTMIG for more information.",Prior Concomitant Meds,"This does not map directly to an SDTMIG variable. May be used to populate a value into an SDTM relative timing variable such as CMSTRF or CMSTRTPT. When populating CMSTRF, or CMSTRTPT, if the value of the CDASH field CMPRIOR is ""Y"" a value from the CDISC CT (STENRF) may be used. When CMPRIOR refers to the Study Reference Period (defined in DM.RFSTDTC to DM.RFENDTC), the SDTM variable CMSTRF should be populated. When CMPRIOR is compared to another time point, the SDTM variables CMSTRTPT and CMSTTPT should be used. Note: CMSTRTPT must refer to the time-point anchor described in CMSTTPT.",CMPRIOR,24,Prior to [CMSTTPT]; Prior to Study,Was the (concomitant) [medication/treatment/therapy] given/taken prior to [CMSTTPT]?; Was the (concomitant) [medication/treatment/therapy] given/taken prior to study start?,Char,['NY']
49,Interventions,"This SDTM class captures investigational, therapeutic and other treatments that are administered to the subject (with some actual or expected physiological effect) either as specified by the study protocol (e.g., exposure to study drug), coincident with the study assessment period (e.g., concomitant medications), or self-administered by the subject (such as use of alcohol, tobacco, or caffeine). (Source: CDISC Controlled Terminology, GNRLOBSC, C103374, 2023-06-30)",CM,Concomitant/Prior Medications,"An interventions domain that contains concomitant and prior medications used by the subject, such as those given on an as needed basis or condition-appropriate medications. (Source: CDISC Controlled Terminology, DOMAIN, C49568, 2023-6-28)",R/C,Indication the concomitant medication/treatment/therapy is ongoing when no end date is provided.,"This box should be checked to indicate that the concomitant medication/treatment has not stopped at the time of data collection. It is expected that every recorded medication/treatment should have either an end date or be checked as ongoing, but not both. However, in cases where ongoing concomitant medications/treatments are not permitted, it may not be necessary to include an Ongoing field in the CRF. See Section 3.7, Mapping Relative Times from Collection to Submission, for more information about collecting relative date/time; see the SDTMIG for information about mapping relative times.",Ongoing Concomitant Meds,"This does not map directly to an SDTM variable. May be used to populate a value into an SDTMIG relative timing variable (e.g., CMENRF, CMENRTPT). When populating CMENRF, if the value of CMONGO is ""Y"", the values of ""DURING"", ""AFTER"", or ""DURING/AFTER"" may be used. When populating CMENRTPT, if the value of CMONGO is ""Y"", the value of ""ONGOING"" may be used. When CMONGO refers to the Study Reference Period (defined in DM.RFSTDTC to DM.RFENDTC) the SDTM variable CMENRF should be populated. When CMONGO is used in conjunction with another time point, the SDTM variables CMENRTPT and CMENTPT should be used. Note: CMENRTPT must refer to a time-point anchor described in CMENTPT.",CMONGO,25,Ongoing (as of [the study-specific time point or period]),Was the (concomitant) [medication/treatment/therapy] ongoing (as of [the study-specific time point or period])?,Char,['NY']
50,Interventions,"This SDTM class captures investigational, therapeutic and other treatments that are administered to the subject (with some actual or expected physiological effect) either as specified by the study protocol (e.g., exposure to study drug), coincident with the study assessment period (e.g., concomitant medications), or self-administered by the subject (such as use of alcohol, tobacco, or caffeine). (Source: CDISC Controlled Terminology, GNRLOBSC, C103374, 2023-06-30)",CM,Concomitant/Prior Medications,"An interventions domain that contains concomitant and prior medications used by the subject, such as those given on an as needed basis or condition-appropriate medications. (Source: CDISC Controlled Terminology, DOMAIN, C49568, 2023-6-28)",R/C,"The date that the subject ended/stopped taking the concomitant medication/treatment/therapy, represented in an unambiguous date format (e.g., DD-MON-YYYY).","The assumption is that sponsors should either have an End Date or will indicate that the medication or therapy was ongoing at the time of collection or at the end of the study. However, in cases where the end date can be determined from dates collected elsewhere in the CRF it is not necessary to include an End Date field on the CRF. For example, if all concomitant medications/treatments are administered only once during a trial, the end date will be the same as the start date.",Concomitant Meds End Date,"This does not map directly to an SDTMIG variable. For the SDTM submission dataset, concatenate all collected CDASH END DATE and TIME components and populate the SDTMIG variable CMENDTC in ISO 8601 format.",CMENDAT,26,End Date,What was the (concomitant) [medication/treatment/therapy/dose] end date?,Char,['NY']
51,Interventions,"This SDTM class captures investigational, therapeutic and other treatments that are administered to the subject (with some actual or expected physiological effect) either as specified by the study protocol (e.g., exposure to study drug), coincident with the study assessment period (e.g., concomitant medications), or self-administered by the subject (such as use of alcohol, tobacco, or caffeine). (Source: CDISC Controlled Terminology, GNRLOBSC, C103374, 2023-06-30)",CM,Concomitant/Prior Medications,"An interventions domain that contains concomitant and prior medications used by the subject, such as those given on an as needed basis or condition-appropriate medications. (Source: CDISC Controlled Terminology, DOMAIN, C49568, 2023-6-28)",R/C,"The time when the subject ended/stopped taking the concomitant medication/treatment/therapy, represented in an unambiguous time format (e.g., hh:mm:ss).","Recommend collecting the time a concomitant medication or treatment was ended only when a protocol or data collection scenario requires it or the subject records the end time in a diary. Typically, an end time is not collected unless the subject is under the direct care of the site at the time a concomitant medication/treatment is stopped.",Concomitant Meds End Time,"This does not map directly to an SDTMIG variable. For the SDTM submission dataset, concatenate all collected CDASH END DATE and TIME components and populate the SDTMIG variable CMENDTC in ISO 8601 format.",CMENTIM,27,End Time,What was the [medication/treatment/therapy/dose] end time?,Char,['NY']
52,Interventions,"This SDTM class captures investigational, therapeutic and other treatments that are administered to the subject (with some actual or expected physiological effect) either as specified by the study protocol (e.g., exposure to study drug), coincident with the study assessment period (e.g., concomitant medications), or self-administered by the subject (such as use of alcohol, tobacco, or caffeine). (Source: CDISC Controlled Terminology, GNRLOBSC, C103374, 2023-06-30)",CM,Concomitant/Prior Medications,"An interventions domain that contains concomitant and prior medications used by the subject, such as those given on an as needed basis or condition-appropriate medications. (Source: CDISC Controlled Terminology, DOMAIN, C49568, 2023-6-28)",O,The reason the treatment was discontinued.,"Although frequently used for prior meds, this can be used for any intervention at any timepoint. \n When the dosing of a treatment is recorded over multiple successive records, this variable is applicable only for the (chronologically) last record for the treatment.",Reason for Treatment Discontinuation,Maps directly to the SDTMIG variable listed in the SDTMIG Target column.,CMRSDISC,28,Reason for discontinuation of concomitant medication/treatment,What was the reason the (concomitant) [medication/treatment/therapy/ --TRT] was [discontinued/stopped/ended]?,Char,['NY']
53,Interventions,"This SDTM class captures investigational, therapeutic and other treatments that are administered to the subject (with some actual or expected physiological effect) either as specified by the study protocol (e.g., exposure to study drug), coincident with the study assessment period (e.g., concomitant medications), or self-administered by the subject (such as use of alcohol, tobacco, or caffeine). (Source: CDISC Controlled Terminology, GNRLOBSC, C103374, 2023-06-30)",CM,Concomitant/Prior Medications,"An interventions domain that contains concomitant and prior medications used by the subject, such as those given on an as needed basis or condition-appropriate medications. (Source: CDISC Controlled Terminology, DOMAIN, C49568, 2023-6-28)",O,"The dictionary or sponsor-defined standardized text description of the topic variable, CMTRT, or the modified topic variable (CMMODIFY), if applicable.","This field does not typically appear on the CRF. Sponsors will populate this through the coding process. Equivalent to the generic drug name in published (e.g., WHODrug, SNOMED, ICD9) or sponsor-defined dictionaries.",Standardized Medication Name,Maps directly to the SDTMIG variable listed in the SDTMIG Target column.,CMDECOD,29,Reason for discontinuation of concomitant medication/treatment,What was the reason the (concomitant) [medication/treatment/therapy/ --TRT] was [discontinued/stopped/ended]?,Char,['NY']
54,Interventions,"This SDTM class captures investigational, therapeutic and other treatments that are administered to the subject (with some actual or expected physiological effect) either as specified by the study protocol (e.g., exposure to study drug), coincident with the study assessment period (e.g., concomitant medications), or self-administered by the subject (such as use of alcohol, tobacco, or caffeine). (Source: CDISC Controlled Terminology, GNRLOBSC, C103374, 2023-06-30)",CM,Concomitant/Prior Medications,"An interventions domain that contains concomitant and prior medications used by the subject, such as those given on an as needed basis or condition-appropriate medications. (Source: CDISC Controlled Terminology, DOMAIN, C49568, 2023-6-28)",O,The class for the intervention (often obtained from a coding dictionary).,This field does not typically appear on the CRF. Sponsors will populate this through the coding process. This would generally be the class used for analysis.,CM Medication Class,Maps directly to the SDTMIG variable listed in the SDTMIG Target column.,CMCLAS,30,Reason for discontinuation of concomitant medication/treatment,What was the reason the (concomitant) [medication/treatment/therapy/ --TRT] was [discontinued/stopped/ended]?,Char,['NY']
55,Interventions,"This SDTM class captures investigational, therapeutic and other treatments that are administered to the subject (with some actual or expected physiological effect) either as specified by the study protocol (e.g., exposure to study drug), coincident with the study assessment period (e.g., concomitant medications), or self-administered by the subject (such as use of alcohol, tobacco, or caffeine). (Source: CDISC Controlled Terminology, GNRLOBSC, C103374, 2023-06-30)",CM,Concomitant/Prior Medications,"An interventions domain that contains concomitant and prior medications used by the subject, such as those given on an as needed basis or condition-appropriate medications. (Source: CDISC Controlled Terminology, DOMAIN, C49568, 2023-6-28)",O,The assigned dictionary code for the class for the intervention.,This field does not typically appear on the CRF. Sponsors will populate this through the coding process. This would generally be the class code used for analysis.,CM Medication Class Code,Maps directly to the SDTMIG variable listed in the SDTMIG Target column.,CMCLASCD,31,Reason for discontinuation of concomitant medication/treatment,What was the reason the (concomitant) [medication/treatment/therapy/ --TRT] was [discontinued/stopped/ended]?,Char,['NY']
56,Interventions,"This SDTM class captures investigational, therapeutic and other treatments that are administered to the subject (with some actual or expected physiological effect) either as specified by the study protocol (e.g., exposure to study drug), coincident with the study assessment period (e.g., concomitant medications), or self-administered by the subject (such as use of alcohol, tobacco, or caffeine). (Source: CDISC Controlled Terminology, GNRLOBSC, C103374, 2023-06-30)",CM,Concomitant/Prior Medications,"An interventions domain that contains concomitant and prior medications used by the subject, such as those given on an as needed basis or condition-appropriate medications. (Source: CDISC Controlled Terminology, DOMAIN, C49568, 2023-6-28)",O,Dictionary text description of the first level of hierarchy within the Anatomical Therapeutic Chemical (ATC) classification system; indicates the anatomical main group.,This field does not typically appear on the CRF. This is populated through the sponsor's coding process.,ATC Level 1 Description,"This does not map directly to an SDTMIG variable. This information could be submitted in a SUPPCM dataset as the value of SUPPCM.QVAL where SUPPCM.QNAM=""CMATC1"" and SUPPCM.QLABEL=""ATC Level 1 Description"". Sponsors should include an Origin column in the SUPPQ dataset to indicate that the data was ""ASSIGNED"". Refer to the current SDTM and SDTMIG for instructions on placement of non-standard variables (NSVs) in SDTM domains.",CMATC1,32,Reason for discontinuation of concomitant medication/treatment,What was the reason the (concomitant) [medication/treatment/therapy/ --TRT] was [discontinued/stopped/ended]?,Char,['NY']
57,Interventions,"This SDTM class captures investigational, therapeutic and other treatments that are administered to the subject (with some actual or expected physiological effect) either as specified by the study protocol (e.g., exposure to study drug), coincident with the study assessment period (e.g., concomitant medications), or self-administered by the subject (such as use of alcohol, tobacco, or caffeine). (Source: CDISC Controlled Terminology, GNRLOBSC, C103374, 2023-06-30)",CM,Concomitant/Prior Medications,"An interventions domain that contains concomitant and prior medications used by the subject, such as those given on an as needed basis or condition-appropriate medications. (Source: CDISC Controlled Terminology, DOMAIN, C49568, 2023-6-28)",O,Dictionary code denoting the first level of hierarchy within the ATC classification system; indicates the anatomical main group.,This field does not typically appear on the CRF. This is populated through the sponsor's coding process.,ATC Level 1 Code,"This does not map directly to an SDTMIG variable. This information could be submitted in a SUPPCM dataset as the value of SUPPCM.QVAL where SUPPCM.QNAM =""CMATC1CD"" and SUPPCM.QLABEL=""ATC Level 1 Code"". Sponsors should include an Origin column in the SUPPQ dataset to indicate that the data was ""ASSIGNED"".",CMATC1CD,33,Reason for discontinuation of concomitant medication/treatment,What was the reason the (concomitant) [medication/treatment/therapy/ --TRT] was [discontinued/stopped/ended]?,Char,['NY']
58,Interventions,"This SDTM class captures investigational, therapeutic and other treatments that are administered to the subject (with some actual or expected physiological effect) either as specified by the study protocol (e.g., exposure to study drug), coincident with the study assessment period (e.g., concomitant medications), or self-administered by the subject (such as use of alcohol, tobacco, or caffeine). (Source: CDISC Controlled Terminology, GNRLOBSC, C103374, 2023-06-30)",CM,Concomitant/Prior Medications,"An interventions domain that contains concomitant and prior medications used by the subject, such as those given on an as needed basis or condition-appropriate medications. (Source: CDISC Controlled Terminology, DOMAIN, C49568, 2023-6-28)",O,Dictionary text description for the second level of hierarchy within the ATC classification system; indicates the therapeutic main group.,This field does not typically appear on the CRF. This is populated through the sponsor's coding process.,ATC Level 2 Description,"This does not map directly to an SDTMIG variable. This information could be submitted in a SUPPCM dataset as the value of SUPPCM.QVAL where SUPPCM.QNAM=""CMATC2"" and SUPPCM.QLABEL=""ATC Level 2 Description"". Sponsors should include an Origin column in the SUPPQ dataset to indicate that the data was ""ASSIGNED"". Refer to the current SDTM and SDTMIG for instructions on placement of NSVs in SDTM domains.",CMATC2,34,Reason for discontinuation of concomitant medication/treatment,What was the reason the (concomitant) [medication/treatment/therapy/ --TRT] was [discontinued/stopped/ended]?,Char,['NY']
59,Interventions,"This SDTM class captures investigational, therapeutic and other treatments that are administered to the subject (with some actual or expected physiological effect) either as specified by the study protocol (e.g., exposure to study drug), coincident with the study assessment period (e.g., concomitant medications), or self-administered by the subject (such as use of alcohol, tobacco, or caffeine). (Source: CDISC Controlled Terminology, GNRLOBSC, C103374, 2023-06-30)",CM,Concomitant/Prior Medications,"An interventions domain that contains concomitant and prior medications used by the subject, such as those given on an as needed basis or condition-appropriate medications. (Source: CDISC Controlled Terminology, DOMAIN, C49568, 2023-6-28)",O,Dictionary code denoting the second level of hierarchy within the ATC classification system; indicates the therapeutic main group.,This field does not typically appear on the CRF. This is populated through the sponsor's coding process.,ATC Level 2 Code,"This does not map directly to an SDTMIG variable. This information could be submitted in a SUPPCM dataset as the value of SUPPCM.QVAL where SUPPCM.QNAM=""CMATC2CD"" and SUPPCM.QLABEL=""ATC Level 2 Code"". Sponsors should include an Origin column in the SUPPQ dataset to indicate that the data was ""ASSIGNED"".",CMATC2CD,35,Reason for discontinuation of concomitant medication/treatment,What was the reason the (concomitant) [medication/treatment/therapy/ --TRT] was [discontinued/stopped/ended]?,Char,['NY']
60,Interventions,"This SDTM class captures investigational, therapeutic and other treatments that are administered to the subject (with some actual or expected physiological effect) either as specified by the study protocol (e.g., exposure to study drug), coincident with the study assessment period (e.g., concomitant medications), or self-administered by the subject (such as use of alcohol, tobacco, or caffeine). (Source: CDISC Controlled Terminology, GNRLOBSC, C103374, 2023-06-30)",CM,Concomitant/Prior Medications,"An interventions domain that contains concomitant and prior medications used by the subject, such as those given on an as needed basis or condition-appropriate medications. (Source: CDISC Controlled Terminology, DOMAIN, C49568, 2023-6-28)",O,Dictionary text description of the third level of hierarchy within the ATC classification system; indicates the therapeutic/pharmacological subgroup.,This field does not typically appear on the CRF. This is populated through the sponsor's coding process.,ATC Level 3 Description,"This does not map directly to an SDTMIG variable. This information could be submitted in a SUPPCM dataset as the value of SUPPCM.QVAL where SUPPCM.QNAM=""CMATC3"" and SUPPCM.QLABEL=""ATC Level 3 Description"". Sponsors should include an Origin column in the SUPPQ dataset to indicate that the data was ""ASSIGNED"". Refer to the current SDTM and SDTMIG for instructions on placement of NSVs in SDTM domains.",CMATC3,36,Reason for discontinuation of concomitant medication/treatment,What was the reason the (concomitant) [medication/treatment/therapy/ --TRT] was [discontinued/stopped/ended]?,Char,['NY']
61,Interventions,"This SDTM class captures investigational, therapeutic and other treatments that are administered to the subject (with some actual or expected physiological effect) either as specified by the study protocol (e.g., exposure to study drug), coincident with the study assessment period (e.g., concomitant medications), or self-administered by the subject (such as use of alcohol, tobacco, or caffeine). (Source: CDISC Controlled Terminology, GNRLOBSC, C103374, 2023-06-30)",CM,Concomitant/Prior Medications,"An interventions domain that contains concomitant and prior medications used by the subject, such as those given on an as needed basis or condition-appropriate medications. (Source: CDISC Controlled Terminology, DOMAIN, C49568, 2023-6-28)",O,Dictionary code denoting the third level of hierarchy within the ATC classification system; indicates the therapeutic/pharmacological subgroup.,This field does not typically appear on the CRF. This is populated through the sponsor's coding process.,ATC Level 3 Code,"This does not map directly to an SDTMIG variable. This information could be submitted in a SUPPCM dataset as the value of SUPPCM.QVAL where SUPPCM.QNAM=""CMATC3CD"" and SUPPCM.QLABEL=""ATC Level 3 Code"". Sponsors should include an Origin column in the SUPPQ dataset to indicate that the data was ""ASSIGNED"".",CMATC3CD,37,Reason for discontinuation of concomitant medication/treatment,What was the reason the (concomitant) [medication/treatment/therapy/ --TRT] was [discontinued/stopped/ended]?,Char,['NY']
62,Interventions,"This SDTM class captures investigational, therapeutic and other treatments that are administered to the subject (with some actual or expected physiological effect) either as specified by the study protocol (e.g., exposure to study drug), coincident with the study assessment period (e.g., concomitant medications), or self-administered by the subject (such as use of alcohol, tobacco, or caffeine). (Source: CDISC Controlled Terminology, GNRLOBSC, C103374, 2023-06-30)",CM,Concomitant/Prior Medications,"An interventions domain that contains concomitant and prior medications used by the subject, such as those given on an as needed basis or condition-appropriate medications. (Source: CDISC Controlled Terminology, DOMAIN, C49568, 2023-6-28)",O,Dictionary text description of the fourth level of hierarchy within the ATC classification system; indicates the chemical/therapeutic/pharmacological subgroup.,This field does not typically appear on the CRF. This is populated through the sponsor's coding process.,ATC Level 4 Description,"This does not map directly to an SDTMIG variable. This information could be submitted in a SUPPCM dataset as the value of SUPPCM.QVAL where SUPPCM.QNAM=""CMATC4"" and SUPPCM.QLABEL=""ATC Level 4 Description"". Sponsors should include an Origin column in the SUPPQ dataset to indicate that the data was ""ASSIGNED"". Refer to the current SDTM and SDTMIG for instructions on placement of NSVs in SDTM domains.",CMATC4,38,Reason for discontinuation of concomitant medication/treatment,What was the reason the (concomitant) [medication/treatment/therapy/ --TRT] was [discontinued/stopped/ended]?,Char,['NY']
63,Interventions,"This SDTM class captures investigational, therapeutic and other treatments that are administered to the subject (with some actual or expected physiological effect) either as specified by the study protocol (e.g., exposure to study drug), coincident with the study assessment period (e.g., concomitant medications), or self-administered by the subject (such as use of alcohol, tobacco, or caffeine). (Source: CDISC Controlled Terminology, GNRLOBSC, C103374, 2023-06-30)",CM,Concomitant/Prior Medications,"An interventions domain that contains concomitant and prior medications used by the subject, such as those given on an as needed basis or condition-appropriate medications. (Source: CDISC Controlled Terminology, DOMAIN, C49568, 2023-6-28)",O,Dictionary code denoting the fourth level of hierarchy within the ATC classification system; indicates the chemical/therapeutic/pharmacological subgroup.,This field does not typically appear on the CRF. This is populated through the sponsor's coding process.,ATC Level 4 Code,"This does not map directly to an SDTMIG variable. This information could be submitted in a SUPPCM dataset as the value of SUPPCM.QVAL where SUPPCM.QNAM=""CMATC4CD"" and SUPPCM.QLABEL=""ATC Level 4 Code"". Sponsors should include an Origin column in the SUPPQ dataset to indicate that the data was ""ASSIGNED"".",CMATC4CD,39,Reason for discontinuation of concomitant medication/treatment,What was the reason the (concomitant) [medication/treatment/therapy/ --TRT] was [discontinued/stopped/ended]?,Char,['NY']
64,Interventions,"This SDTM class captures investigational, therapeutic and other treatments that are administered to the subject (with some actual or expected physiological effect) either as specified by the study protocol (e.g., exposure to study drug), coincident with the study assessment period (e.g., concomitant medications), or self-administered by the subject (such as use of alcohol, tobacco, or caffeine). (Source: CDISC Controlled Terminology, GNRLOBSC, C103374, 2023-06-30)",CM,Concomitant/Prior Medications,"An interventions domain that contains concomitant and prior medications used by the subject, such as those given on an as needed basis or condition-appropriate medications. (Source: CDISC Controlled Terminology, DOMAIN, C49568, 2023-6-28)",O,Dictionary text description of the fifth level of hierarchy within the ATC classification system; indicates the chemical substance.,This field does not typically appear on the CRF. This is populated through the sponsor's coding process.,ATC Level 5 Description,"This does not map directly to an SDTMIG variable. This information could be submitted in a SUPPCM dataset as the value of SUPPCM.QVAL where SUPPCM.QNAM=""CMATC5"" and SUPPCM.QLABEL=""ATC Level 5 Description"". Sponsors should include an Origin column in the SUPPQ dataset to indicate that the data was ""ASSIGNED"". Refer to the current SDTM and SDTMIG for instructions on placement of NSVs in SDTM domains.",CMATC5,40,Reason for discontinuation of concomitant medication/treatment,What was the reason the (concomitant) [medication/treatment/therapy/ --TRT] was [discontinued/stopped/ended]?,Char,['NY']
65,Interventions,"This SDTM class captures investigational, therapeutic and other treatments that are administered to the subject (with some actual or expected physiological effect) either as specified by the study protocol (e.g., exposure to study drug), coincident with the study assessment period (e.g., concomitant medications), or self-administered by the subject (such as use of alcohol, tobacco, or caffeine). (Source: CDISC Controlled Terminology, GNRLOBSC, C103374, 2023-06-30)",CM,Concomitant/Prior Medications,"An interventions domain that contains concomitant and prior medications used by the subject, such as those given on an as needed basis or condition-appropriate medications. (Source: CDISC Controlled Terminology, DOMAIN, C49568, 2023-6-28)",O,Dictionary code denoting the fifth level of hierarchy within the ATC classification system; indicates the chemical substance.,This field does not typically appear on the CRF. This is populated through the sponsor's coding process.,ATC Level 5 Code,"This does not map directly to an SDTMIG variable. This information could be submitted in a SUPPCM dataset as the value of SUPPCM.QVAL where SUPPCM.QNAM=""CMATC5CD"" and SUPPCM.QLABEL=""ATC Level 5 Code"". Sponsors should include an Origin column in the SUPPQ dataset to indicate that the data was ""ASSIGNED"".",CMATC5CD,41,Reason for discontinuation of concomitant medication/treatment,What was the reason the (concomitant) [medication/treatment/therapy/ --TRT] was [discontinued/stopped/ended]?,Char,['NY']
66,Interventions,"This SDTM class captures investigational, therapeutic and other treatments that are administered to the subject (with some actual or expected physiological effect) either as specified by the study protocol (e.g., exposure to study drug), coincident with the study assessment period (e.g., concomitant medications), or self-administered by the subject (such as use of alcohol, tobacco, or caffeine). (Source: CDISC Controlled Terminology, GNRLOBSC, C103374, 2023-06-30)",EC,Exposure as Collected,"An interventions domain that contains information about protocol-specified study treatment administrations, as collected. (Source: CDISC Controlled Terminology, DOMAIN, C117466, 2023-6-28)",HR,A unique identifier for a study.,"Although this field is not typically captured on a CRF, it should be displayed clearly on the CRF and/or in the EDC system. This field can be included in the database or populated during SDTM-based dataset creation before submission.",Study Identifier,Maps directly to the SDTMIG variable listed in the SDTMIG Target column.,STUDYID,1,[Protocol/Study],What is the study identifier?,Char,['NY']
67,Interventions,"This SDTM class captures investigational, therapeutic and other treatments that are administered to the subject (with some actual or expected physiological effect) either as specified by the study protocol (e.g., exposure to study drug), coincident with the study assessment period (e.g., concomitant medications), or self-administered by the subject (such as use of alcohol, tobacco, or caffeine). (Source: CDISC Controlled Terminology, GNRLOBSC, C103374, 2023-06-30)",EC,Exposure as Collected,"An interventions domain that contains information about protocol-specified study treatment administrations, as collected. (Source: CDISC Controlled Terminology, DOMAIN, C117466, 2023-6-28)",HR,A unique identifier for a site within a study.,"Paper: This is typically preprinted in the header of each CRF page for single-site studies. For studies with multiple sites, this field may be left blank so that the number can be recorded by the site, or it may be preprinted on the CRFs that are shipped to each site. \n EDC: This should be prepopulated.",Study Site Identifier,Maps directly to the SDTMIG variable listed in the SDTMIG Target column.,SITEID,2,Site (Identifier),What is the site identifier?,Char,['NY']
68,Interventions,"This SDTM class captures investigational, therapeutic and other treatments that are administered to the subject (with some actual or expected physiological effect) either as specified by the study protocol (e.g., exposure to study drug), coincident with the study assessment period (e.g., concomitant medications), or self-administered by the subject (such as use of alcohol, tobacco, or caffeine). (Source: CDISC Controlled Terminology, GNRLOBSC, C103374, 2023-06-30)",EC,Exposure as Collected,"An interventions domain that contains information about protocol-specified study treatment administrations, as collected. (Source: CDISC Controlled Terminology, DOMAIN, C117466, 2023-6-28)",HR,A unique subject identifier within a site and a study.,"Paper: This is typically recorded in the header of each CRF page. \n EDC: The subject identifiers may be system generated. \n This CDASH variable is typically collected in all CDASH domains. However, this CDASH variable is populated only in the SDTMIG DM domain. For more information, refer to the SDTMIG.",Subject Identifier for the Study,Maps directly to the SDTMIG variable listed in the SDTMIG Target column.,SUBJID,3,[Subject/Participant] (Identifier),What [is/was] the (study) [subject/participant] identifier?,Char,['NY']
69,Interventions,"This SDTM class captures investigational, therapeutic and other treatments that are administered to the subject (with some actual or expected physiological effect) either as specified by the study protocol (e.g., exposure to study drug), coincident with the study assessment period (e.g., concomitant medications), or self-administered by the subject (such as use of alcohol, tobacco, or caffeine). (Source: CDISC Controlled Terminology, GNRLOBSC, C103374, 2023-06-30)",EC,Exposure as Collected,"An interventions domain that contains information about protocol-specified study treatment administrations, as collected. (Source: CDISC Controlled Terminology, DOMAIN, C117466, 2023-6-28)",R/C,Name of the trial epoch with which this element of the arm is associated.,"If the same information is collected more than once in different periods/parts of a study (e.g., Disposition), EPOCH may be needed to differentiate them. Typically, the trial epoch will be preprinted on the CRF as the title of the page. See SDTMIG for further information regarding EPOCH.",Epoch,Maps directly to the SDTMIG variable listed in the SDTMIG Target column.,EPOCH,4,[Epoch](Period/Phase/Sponsor-defined phrase),What is the trial epoch?,Char,['EPOCH']
70,Interventions,"This SDTM class captures investigational, therapeutic and other treatments that are administered to the subject (with some actual or expected physiological effect) either as specified by the study protocol (e.g., exposure to study drug), coincident with the study assessment period (e.g., concomitant medications), or self-administered by the subject (such as use of alcohol, tobacco, or caffeine). (Source: CDISC Controlled Terminology, GNRLOBSC, C103374, 2023-06-30)",EC,Exposure as Collected,"An interventions domain that contains information about protocol-specified study treatment administrations, as collected. (Source: CDISC Controlled Terminology, DOMAIN, C117466, 2023-6-28)",O,An indication of whether the subject took the study medication/ treatment.,"The intent/purpose of collecting this field is to help with data cleaning and monitoring. It provides verification that all other fields on the CRF were deliberately left blank. The ECYN is meant to indicate that the exposure as collected form should be completed or inserted into the case book. ECOCCUR would be used when the actual drug name is preprinted on the CRF. While these might be equivalent in a single-drug study, there are differences in how they would be used in most trials. Therefore, it does not map into the SDTM variable ECOCCUR; ECOCCUR indicates whether the subject was actually administered treatment/medication. If actual treatment data is available (ECYN =""Y""), ECOCCUR may be populated based on whether subject was actually administered treatment/medication.",Any Study Treatment Taken,Does not map to an SDTMIG variable. The SDTM annotated CRF indicates that this field is NOT SUBMITTED.,ECYN,5,Any Study Treatments,Were any[study treatment/dose] taken?,Char,['NY']
71,Interventions,"This SDTM class captures investigational, therapeutic and other treatments that are administered to the subject (with some actual or expected physiological effect) either as specified by the study protocol (e.g., exposure to study drug), coincident with the study assessment period (e.g., concomitant medications), or self-administered by the subject (such as use of alcohol, tobacco, or caffeine). (Source: CDISC Controlled Terminology, GNRLOBSC, C103374, 2023-06-30)",EC,Exposure as Collected,"An interventions domain that contains information about protocol-specified study treatment administrations, as collected. (Source: CDISC Controlled Terminology, DOMAIN, C117466, 2023-6-28)",O,A grouping of topic-variable values based on user-defined characteristics.,"Sponsor-defined controlled terminology. This would most commonly be either a heading or a preprinted category value on the CRF, and not a question to which the site would provide an answer. If a question is asked, the response would typically be a sponsor-defined codelist. If the form is laid out as a grid, then words such as ""Category"" can be included as the column heading.",Category of Treatment,Maps directly to the SDTMIG variable listed in the SDTMIG Target column.,ECCAT,6,[Study Treatment Category]; NULL,What is the category of the [study treatment/dose]?,Char,['NY']
72,Interventions,"This SDTM class captures investigational, therapeutic and other treatments that are administered to the subject (with some actual or expected physiological effect) either as specified by the study protocol (e.g., exposure to study drug), coincident with the study assessment period (e.g., concomitant medications), or self-administered by the subject (such as use of alcohol, tobacco, or caffeine). (Source: CDISC Controlled Terminology, GNRLOBSC, C103374, 2023-06-30)",EC,Exposure as Collected,"An interventions domain that contains information about protocol-specified study treatment administrations, as collected. (Source: CDISC Controlled Terminology, DOMAIN, C117466, 2023-6-28)",O,A sub-division of the ECCAT values based on user-defined characteristics.,Sponsor-defined controlled terminology. This would most commonly be preprinted on the CRF or screen and prepopulated in the data management system. This is not typically a question to which the site would provide an answer. ECSCAT can only be used if there is an ECCAT and it must be a subcategorization of ECCAT.,Subcategory of Treatment,Maps directly to the SDTMIG variable listed in the SDTMIG Target column.,ECSCAT,7,[Study Treatment Subcategory]; NULL,What is the subcategory of the [study treatment/dose]?,Char,['NY']
73,Interventions,"This SDTM class captures investigational, therapeutic and other treatments that are administered to the subject (with some actual or expected physiological effect) either as specified by the study protocol (e.g., exposure to study drug), coincident with the study assessment period (e.g., concomitant medications), or self-administered by the subject (such as use of alcohol, tobacco, or caffeine). (Source: CDISC Controlled Terminology, GNRLOBSC, C103374, 2023-06-30)",EC,Exposure as Collected,"An interventions domain that contains information about protocol-specified study treatment administrations, as collected. (Source: CDISC Controlled Terminology, DOMAIN, C117466, 2023-6-28)",R/C,Name of the intervention or treatment known to the subject and/or administrator.,"ECTRT is the name of the intervention or treatment known to the subject and/or administrator and it is the SDTM topic variable. It is a required variable in SDTM and must have a value in CDASH or a plan to populate it in the SDTM submission datasets (i.e., collected or populated from other sources). If, in a masked study, treatment is collected and known as tablet A to the subject or administrator, then ECTRT=""TABLET A"". If, in a masked study, the treatment is not known by a synonym and the data are to be exchanged between sponsors, partners, and/or regulatory agency(s), then assign ECTRT the value of ""MASKED"".",Treatment,Maps directly to the SDTMIG variable listed in the SDTMIG Target column.,ECTRT,8,[Study Treatment/Investigational Product Name],What was the [study treatment/investigational product] name?,Char,['NY']
74,Interventions,"This SDTM class captures investigational, therapeutic and other treatments that are administered to the subject (with some actual or expected physiological effect) either as specified by the study protocol (e.g., exposure to study drug), coincident with the study assessment period (e.g., concomitant medications), or self-administered by the subject (such as use of alcohol, tobacco, or caffeine). (Source: CDISC Controlled Terminology, GNRLOBSC, C103374, 2023-06-30)",EC,Exposure as Collected,"An interventions domain that contains information about protocol-specified study treatment administrations, as collected. (Source: CDISC Controlled Terminology, DOMAIN, C117466, 2023-6-28)",O,An indication that a specific intervention or a group of interventions is prespecified on a CRF.,"For prespecified interventions, a hidden field on a CRF defaulted to ""Y"", or added during the SDTM dataset creation. If a study collects both prespecified and free-text interventions, the value of ECPRESP should be ""Y"" for all prespecified interventions and null for interventions reported as free text.",Exposure as Collected Prespecified,Maps directly to the SDTMIG variable listed in the SDTMIG Target column.,ECPRESP,9,[Study Treatment/Investigational Product Name],What was the [study treatment/investigational product] name?,Char,['NY']
75,Interventions,"This SDTM class captures investigational, therapeutic and other treatments that are administered to the subject (with some actual or expected physiological effect) either as specified by the study protocol (e.g., exposure to study drug), coincident with the study assessment period (e.g., concomitant medications), or self-administered by the subject (such as use of alcohol, tobacco, or caffeine). (Source: CDISC Controlled Terminology, GNRLOBSC, C103374, 2023-06-30)",EC,Exposure as Collected,"An interventions domain that contains information about protocol-specified study treatment administrations, as collected. (Source: CDISC Controlled Terminology, DOMAIN, C117466, 2023-6-28)",O,An indication whether the study treatment was administered when information about the occurrence of a specific intervention was solicited.,ECOCCUR is used to indicate whether the subject was actually administered treatment/medication. ECOCCUR should not be used to indicate that the question was not asked or answered.,Exposure as Collected Occurrence,"Maps directly to the SDTMIG variable listed in the SDTMIG Target column. Not applicable when ECMOOD is ""Scheduled"".",ECOCCUR,10,[Study Medication/Treatment],Was [study treatment/dose] administered?; Has the subject taken [study treatment/dose]?,Char,['NY']
76,Interventions,"This SDTM class captures investigational, therapeutic and other treatments that are administered to the subject (with some actual or expected physiological effect) either as specified by the study protocol (e.g., exposure to study drug), coincident with the study assessment period (e.g., concomitant medications), or self-administered by the subject (such as use of alcohol, tobacco, or caffeine). (Source: CDISC Controlled Terminology, GNRLOBSC, C103374, 2023-06-30)",EC,Exposure as Collected,"An interventions domain that contains information about protocol-specified study treatment administrations, as collected. (Source: CDISC Controlled Terminology, DOMAIN, C117466, 2023-6-28)",O,An explanation for why a scheduled study treatment administration did or did not occur.,"The reason the study treatment was or was not taken may be chosen from a sponsor-defined codelist (e.g., SUBJECT MISTAKE, SUBJECT REFUSED) or entered as free text. When --REASOC is used, --OCCUR must also be populated in the SDTM dataset with a value of ""Y"" or ""N"".",Exposure Reason for Occur Value,"This information could be submitted in a SUPPEC dataset as the value of SUPPEC.QVAL where SUPPEC.QNAM=""ECREASOC"" and SUPPEC.QLABEL =""Reason for Occur Value"". Refer to the current SDTM and SDTMIG for instructions on placement of non-standard variables (NSVs) in SDTM domains.",ECREASOC,11,Reason (Not) Taken,What was the reason that the [study treatment/dose] was (not) taken?,Char,['NY']
77,Interventions,"This SDTM class captures investigational, therapeutic and other treatments that are administered to the subject (with some actual or expected physiological effect) either as specified by the study protocol (e.g., exposure to study drug), coincident with the study assessment period (e.g., concomitant medications), or self-administered by the subject (such as use of alcohol, tobacco, or caffeine). (Source: CDISC Controlled Terminology, GNRLOBSC, C103374, 2023-06-30)",EC,Exposure as Collected,"An interventions domain that contains information about protocol-specified study treatment administrations, as collected. (Source: CDISC Controlled Terminology, DOMAIN, C117466, 2023-6-28)",O,Mode or condition of the record specifying whether the intervention (activity) is intended to happen or has happened.,"""SCHEDULED"" is for collected subject-level intended dose records. ""PERFORMED"" is for collected subject-level actual dose records. ""Planned"" or ""Scheduled"" can be preprinted as the CRF name or section header, as applicable. If collecting both the scheduled and performed dosing in the same horizontal record, the sponsor may choose to append ""_SCHEDULED"" to the ECDOSE/ECDOSTXT variable name to delineate the scheduled dose from the performed dose. The performed dose would just be collected with ECDOSE/ECDOSTXT and ECDOSU.",Exposure as Collected Mood,"Maps directly to the SDTMIG variable listed in the SDTMIG Target column. When implemented, ECMOOD must be populated for all records.",ECMOOD,12,Scheduled/Performed,Does this record describe scheduled [study treatment/dose] or performed [study treatment/dose]?,Char,['BRDGMOOD']
78,Interventions,"This SDTM class captures investigational, therapeutic and other treatments that are administered to the subject (with some actual or expected physiological effect) either as specified by the study protocol (e.g., exposure to study drug), coincident with the study assessment period (e.g., concomitant medications), or self-administered by the subject (such as use of alcohol, tobacco, or caffeine). (Source: CDISC Controlled Terminology, GNRLOBSC, C103374, 2023-06-30)",EC,Exposure as Collected,"An interventions domain that contains information about protocol-specified study treatment administrations, as collected. (Source: CDISC Controlled Terminology, DOMAIN, C117466, 2023-6-28)",O,"An internal or external identifier (e.g., kit number, bottle label, vial identifier).","This packaging identifier (e.g., kit number, bottle label, vial identifier) may be collected in different ways (e.g., affixing label onto CRF, scanning a bar code). For some study dosing regimens that require greater granularity for treatment identifiers, sponsors may need to use additional variables.",Exposure as Collected Reference ID,Maps directly to the SDTMIG variable listed in the SDTMIG Target column.,ECREFID,13,[Study Treatment] Label Identifier,What is the[study treatment/dose] label identifier?,Char,['BRDGMOOD']
79,Interventions,"This SDTM class captures investigational, therapeutic and other treatments that are administered to the subject (with some actual or expected physiological effect) either as specified by the study protocol (e.g., exposure to study drug), coincident with the study assessment period (e.g., concomitant medications), or self-administered by the subject (such as use of alcohol, tobacco, or caffeine). (Source: CDISC Controlled Terminology, GNRLOBSC, C103374, 2023-06-30)",EC,Exposure as Collected,"An interventions domain that contains information about protocol-specified study treatment administrations, as collected. (Source: CDISC Controlled Terminology, DOMAIN, C117466, 2023-6-28)",R/C,Lot number of the ECTRT product.,"The lot number identifies the manufacturing batch of the study treatment. In open-label studies, the reference number on the study treatment container may represent an actual lot number and should be submitted using ECLOT. This variable may be populated during the process of creating the SDTM submission datasets. Do not collect other identification variables in this field.",Lot Number,Maps directly to the SDTMIG variable listed in the SDTMIG Target column.,ECLOT,14,Lot Number,What was the lot number of the[study treatment/dose] used?,Char,['BRDGMOOD']
80,Interventions,"This SDTM class captures investigational, therapeutic and other treatments that are administered to the subject (with some actual or expected physiological effect) either as specified by the study protocol (e.g., exposure to study drug), coincident with the study assessment period (e.g., concomitant medications), or self-administered by the subject (such as use of alcohol, tobacco, or caffeine). (Source: CDISC Controlled Terminology, GNRLOBSC, C103374, 2023-06-30)",EC,Exposure as Collected,"An interventions domain that contains information about protocol-specified study treatment administrations, as collected. (Source: CDISC Controlled Terminology, DOMAIN, C117466, 2023-6-28)",O,An indication that the subject has abstained from food/water for the specified amount of time.,"Because some study treatments may have a food effect, it is important to know whether the dose was taken after the subject had fasted.",Exposure as Collected Fasting Status,"Maps directly to the SDTMIG variable listed in the SDTMIG Target column. Would only be populated when ECMOOD=""PERFORMED"".",ECFAST,15,Fasting,Was the subject fasting?,Char,['NY']
81,Interventions,"This SDTM class captures investigational, therapeutic and other treatments that are administered to the subject (with some actual or expected physiological effect) either as specified by the study protocol (e.g., exposure to study drug), coincident with the study assessment period (e.g., concomitant medications), or self-administered by the subject (such as use of alcohol, tobacco, or caffeine). (Source: CDISC Controlled Terminology, GNRLOBSC, C103374, 2023-06-30)",EC,Exposure as Collected,"An interventions domain that contains information about protocol-specified study treatment administrations, as collected. (Source: CDISC Controlled Terminology, DOMAIN, C117466, 2023-6-28)",R/C,The dosage form in which the ECTRT is physically presented.,This must be collected if it cannot be determined from other sources or if there are multiple options for the same study treatment.,Exposure as Collected Dose Form,Maps directly to the SDTMIG variable listed in the SDTMIG Target column.,ECDOSFRM,16,Dose Form,What was the dose form of the [study treatment/dose]?,Char,"['FRM', 'EXDOSFRM']"
82,Interventions,"This SDTM class captures investigational, therapeutic and other treatments that are administered to the subject (with some actual or expected physiological effect) either as specified by the study protocol (e.g., exposure to study drug), coincident with the study assessment period (e.g., concomitant medications), or self-administered by the subject (such as use of alcohol, tobacco, or caffeine). (Source: CDISC Controlled Terminology, GNRLOBSC, C103374, 2023-06-30)",EC,Exposure as Collected,"An interventions domain that contains information about protocol-specified study treatment administrations, as collected. (Source: CDISC Controlled Terminology, DOMAIN, C117466, 2023-6-28)",HR,"The start date of study treatment, intended or actual, represented in an unambiguous date format (e.g., DD-MON-YYYY).","Date when constant dosing interval of the study treatment started or single administration occurred. When collecting the date for an individual dose, the word ""start"" may be omitted from the Question Text and Prompt. When ECMOOD is collected and ECMOOD is ""SCHEDULED"", use ""intended"" in the question text and prompt. When ECMOOD is collected and ECMOOD is ""PERFORMED"", use ""actual"" in the question text and prompt.",Exposure as Collected Start Date,"This does not map directly to an SDTMIG variable. For the SDTM submission dataset, concatenate all collected CDASH START DATE and TIME components and populate the SDTMIG variable ECSTDTC in ISO 8601 format.",ECSTDAT,17,(Start) Date,What was the ([intended/planned/actual]) ([study treatment/dose]) (start) date?,Char,"['FRM', 'EXDOSFRM']"
83,Interventions,"This SDTM class captures investigational, therapeutic and other treatments that are administered to the subject (with some actual or expected physiological effect) either as specified by the study protocol (e.g., exposure to study drug), coincident with the study assessment period (e.g., concomitant medications), or self-administered by the subject (such as use of alcohol, tobacco, or caffeine). (Source: CDISC Controlled Terminology, GNRLOBSC, C103374, 2023-06-30)",EC,Exposure as Collected,"An interventions domain that contains information about protocol-specified study treatment administrations, as collected. (Source: CDISC Controlled Terminology, DOMAIN, C117466, 2023-6-28)",R/C,"The start time of study treatment, represented in an unambiguous time format (e.g., hh:mm:ss).","Recommend collecting the time a medication was started only when a protocol or data collection scenarios requires it. When collecting the time for an individual dose, the word ""start"" may be omitted from the question text and prompt.",Exposure as Collected Start Time,"This does not map directly to an SDTMIG variable. For the SDTM submission dataset, concatenate all collected CDASH START DATE and TIME components and populate the SDTMIG variable ECSTDTC in ISO 8601 format.",ECSTTIM,18,(Start) Time,What was the ([intended/planned/actual]) ([study treatment/dose]) (start) time?,Char,"['FRM', 'EXDOSFRM']"
84,Interventions,"This SDTM class captures investigational, therapeutic and other treatments that are administered to the subject (with some actual or expected physiological effect) either as specified by the study protocol (e.g., exposure to study drug), coincident with the study assessment period (e.g., concomitant medications), or self-administered by the subject (such as use of alcohol, tobacco, or caffeine). (Source: CDISC Controlled Terminology, GNRLOBSC, C103374, 2023-06-30)",EC,Exposure as Collected,"An interventions domain that contains information about protocol-specified study treatment administrations, as collected. (Source: CDISC Controlled Terminology, DOMAIN, C117466, 2023-6-28)",R/C,"The end date of study treatment, represented in an unambiguous date format (e.g., DD-MON-YYYY).","Date when study treatment period stopped.If start date and end date are not expected to be the same date, the collection of the end date is required. If the study design indicates that the start and end are on the same day, the collection of the end date is not required because it can be assigned to be equal to the start date.",Exposure as Collected End Date,"This does not map directly to an SDTMIG variable. For the SDTM submission dataset, concatenate all collected CDASH END DATE and TIME components and populate the SDTMIG variable ECENDTC in ISO 8601 format.",ECENDAT,19,(End) Date,What was the ([intended/planned/actual]) ([study treatment/dose]) (end) date?,Char,"['FRM', 'EXDOSFRM']"
85,Interventions,"This SDTM class captures investigational, therapeutic and other treatments that are administered to the subject (with some actual or expected physiological effect) either as specified by the study protocol (e.g., exposure to study drug), coincident with the study assessment period (e.g., concomitant medications), or self-administered by the subject (such as use of alcohol, tobacco, or caffeine). (Source: CDISC Controlled Terminology, GNRLOBSC, C103374, 2023-06-30)",EC,Exposure as Collected,"An interventions domain that contains information about protocol-specified study treatment administrations, as collected. (Source: CDISC Controlled Terminology, DOMAIN, C117466, 2023-6-28)",R/C,"The end time of study treatment, represented in an unambiguous time format (e.g., hh:mm:ss).","Recommend collecting the time a medication was ended when a protocol or data collection scenarios requires it. For infusions, the end time of the infusion is typically needed.",Exposure as Collected End Time,"This does not map directly to an SDTMIG variable. For the SDTM submission dataset, concatenate all collected CDASH END DATE and TIME components and populate the SDTMIG variable ECENDTC in ISO 8601 format.",ECENTIM,20,(End) Time,What was the ([intended/planned/actual]) ([study treatment/dose]) (end) time?,Char,"['FRM', 'EXDOSFRM']"
86,Interventions,"This SDTM class captures investigational, therapeutic and other treatments that are administered to the subject (with some actual or expected physiological effect) either as specified by the study protocol (e.g., exposure to study drug), coincident with the study assessment period (e.g., concomitant medications), or self-administered by the subject (such as use of alcohol, tobacco, or caffeine). (Source: CDISC Controlled Terminology, GNRLOBSC, C103374, 2023-06-30)",EC,Exposure as Collected,"An interventions domain that contains information about protocol-specified study treatment administrations, as collected. (Source: CDISC Controlled Terminology, DOMAIN, C117466, 2023-6-28)",R/C,The dose of study medication taken (per administration).,"Dose or amount taken for single administration of study treatment or per constant dosing interval recorded. Dose must be collected if it cannot be determined via other methods (e.g., from diary data, drug accountability data, protocol). Care should be taken when mapping ECDSTXT. The data collected in this dose text-format field should be separated or mapped to either ECDOSE if numeric or ECDOSTXT if text.",Exposure as Collected Dose Description,This does not map directly to an SDTMIG variable. The data collected in this dose text-format field should be mapped to either ECDOSE if numeric or ECDOSTXT if text.,ECDSTXT,21,Dose,What was the dose (per administration) (of [study treatment/dose])?,Char,"['FRM', 'EXDOSFRM']"
87,Interventions,"This SDTM class captures investigational, therapeutic and other treatments that are administered to the subject (with some actual or expected physiological effect) either as specified by the study protocol (e.g., exposure to study drug), coincident with the study assessment period (e.g., concomitant medications), or self-administered by the subject (such as use of alcohol, tobacco, or caffeine). (Source: CDISC Controlled Terminology, GNRLOBSC, C103374, 2023-06-30)",EC,Exposure as Collected,"An interventions domain that contains information about protocol-specified study treatment administrations, as collected. (Source: CDISC Controlled Terminology, DOMAIN, C117466, 2023-6-28)",R/C,"The unit for intended dose (per administration) for ECDOSE, ECDOSTOT, or ECDOSTXT.","Unit of dose or amount taken per constant dosing interval recorded. Dose unit must be collected if it cannot be determined via other methods (e.g., from protocol, randomization data). The unit should be preprinted on the CRF or a field provided on the CRF to capture it. A CDASH Subset Controlled Terminology Codelist Name is available for dose and volume units. In blinded trials, the collected unit may be tablet, capsule, etc., since the actual unit is also blinded.",Exposure as Collected Dose Units,Maps directly to the SDTMIG variable listed in the SDTMIG Target column.,ECDOSU,22,Units,What were the units for the dose?,Char,"['UNIT', 'EXDOSU']"
88,Interventions,"This SDTM class captures investigational, therapeutic and other treatments that are administered to the subject (with some actual or expected physiological effect) either as specified by the study protocol (e.g., exposure to study drug), coincident with the study assessment period (e.g., concomitant medications), or self-administered by the subject (such as use of alcohol, tobacco, or caffeine). (Source: CDISC Controlled Terminology, GNRLOBSC, C103374, 2023-06-30)",EC,Exposure as Collected,"An interventions domain that contains information about protocol-specified study treatment administrations, as collected. (Source: CDISC Controlled Terminology, DOMAIN, C117466, 2023-6-28)",R/C,The number of doses given/administered/taken during a specific interval.,"This may be collected if it cannot be determined from other sources or if there are multiple options. When possible, the options for dose/amount frequency are preprinted on the CRF. When collected, the recommendation is to collect dosing information in separate fields (e.g., ECDOSE, ECDOSEU, ECDOSFRQ) for specific and consistent data collection and to enable programmatically using these data.",EC Dosing Frequency per Interval,Maps directly to the SDTMIG variable listed in the SDTMIG Target column.,ECDOSFRQ,23,Frequency,What was the frequency of [study treatment/dose] dosing?,Char,"['FREQ', 'EXDOSFRQ']"
89,Interventions,"This SDTM class captures investigational, therapeutic and other treatments that are administered to the subject (with some actual or expected physiological effect) either as specified by the study protocol (e.g., exposure to study drug), coincident with the study assessment period (e.g., concomitant medications), or self-administered by the subject (such as use of alcohol, tobacco, or caffeine). (Source: CDISC Controlled Terminology, GNRLOBSC, C103374, 2023-06-30)",EC,Exposure as Collected,"An interventions domain that contains information about protocol-specified study treatment administrations, as collected. (Source: CDISC Controlled Terminology, DOMAIN, C117466, 2023-6-28)",R/C,The route of administration of the study treatment.,"This may be collected if it cannot be determined via other methods (e.g., from protocol) or if there are multiple options.",EC Route of Administration,Maps directly to the SDTMIG variable listed in the SDTMIG Target column.,ECROUTE,24,Route,What was the route of administration (of the [study treatment/dose])?,Char,"['ROUTE', 'EXROUTE']"
90,Interventions,"This SDTM class captures investigational, therapeutic and other treatments that are administered to the subject (with some actual or expected physiological effect) either as specified by the study protocol (e.g., exposure to study drug), coincident with the study assessment period (e.g., concomitant medications), or self-administered by the subject (such as use of alcohol, tobacco, or caffeine). (Source: CDISC Controlled Terminology, GNRLOBSC, C103374, 2023-06-30)",EC,Exposure as Collected,"An interventions domain that contains information about protocol-specified study treatment administrations, as collected. (Source: CDISC Controlled Terminology, DOMAIN, C117466, 2023-6-28)",O,Text description of the intended schedule or regimen for the Intervention.,"The regimen information (e.g., TWO WEEKS ON, TWO WEEKS OFF) may further clarify the dose administration and dose frequency. This may be preprinted or collected. The sponsor may wish to create a codelist to collect this data consistently.",Intended Dose Regimen,Maps directly to the SDTMIG variable listed in the SDTMIG Target column.,ECDOSRGM,25,Intended Dose Regimen,What was the intended dose regimen?,Char,"['ROUTE', 'EXROUTE']"
91,Interventions,"This SDTM class captures investigational, therapeutic and other treatments that are administered to the subject (with some actual or expected physiological effect) either as specified by the study protocol (e.g., exposure to study drug), coincident with the study assessment period (e.g., concomitant medications), or self-administered by the subject (such as use of alcohol, tobacco, or caffeine). (Source: CDISC Controlled Terminology, GNRLOBSC, C103374, 2023-06-30)",EC,Exposure as Collected,"An interventions domain that contains information about protocol-specified study treatment administrations, as collected. (Source: CDISC Controlled Terminology, DOMAIN, C117466, 2023-6-28)",O,An indication of whether the dose was adjusted.,"Typically, the intent/purpose of collecting this field is to help with data cleaning and monitoring, as it provides a definitive response regarding any dose changes. It provides verification that the associated field on the CRF (ECADJ) was deliberately left blank. However, the sponsor may collect whether the dose was adjusted, without collecting the reason for the change. When using ECMOOD, this field should not be used.",Dose Adjusted,"When ECADJ is collected, does not map to an SDTMIG variable. The SDTM annotated CRF indicates that this field is NOT SUBMITTED. When ECADJ is not collected, the sponsor may submit this variable in SUPPEC.",ECDOSADJ,26,(Dose) Adjusted,Was the dose adjusted?,Char,['NY']
92,Interventions,"This SDTM class captures investigational, therapeutic and other treatments that are administered to the subject (with some actual or expected physiological effect) either as specified by the study protocol (e.g., exposure to study drug), coincident with the study assessment period (e.g., concomitant medications), or self-administered by the subject (such as use of alcohol, tobacco, or caffeine). (Source: CDISC Controlled Terminology, GNRLOBSC, C103374, 2023-06-30)",EC,Exposure as Collected,"An interventions domain that contains information about protocol-specified study treatment administrations, as collected. (Source: CDISC Controlled Terminology, DOMAIN, C117466, 2023-6-28)",O,Description of or explanation for why a dose of the study treatment was adjusted.,"Captures the reason the dose was changed or modified. The reason may be chosen from a sponsor-defined list (e.g., adverse event, insufficient response) or entered as free text. May be used for variations from protocol-specified doses, or changes from expected doses. Used only when an adjustment is represented in EX dataset.",Reason for Dose Adjustment,Maps directly to the SDTMIG variable listed in the SDTMIG Target column.,ECADJ,27,Reason Adjusted,What was the reason the dose was adjusted?,Char,['NY']
93,Interventions,"This SDTM class captures investigational, therapeutic and other treatments that are administered to the subject (with some actual or expected physiological effect) either as specified by the study protocol (e.g., exposure to study drug), coincident with the study assessment period (e.g., concomitant medications), or self-administered by the subject (such as use of alcohol, tobacco, or caffeine). (Source: CDISC Controlled Terminology, GNRLOBSC, C103374, 2023-06-30)",EC,Exposure as Collected,"An interventions domain that contains information about protocol-specified study treatment administrations, as collected. (Source: CDISC Controlled Terminology, DOMAIN, C117466, 2023-6-28)",O,An indication of whether the exposure was interrupted.,"The intent/purpose of collecting this field is to help with data cleaning and monitoring when the actual duration of the exposure is collected using the CDASH field ECCINTD. In some situations, if the actual duration of the interruption is not collected or not derived, this information could be submitted in a SUPPEC.QVAL dataset where SUPPEC.QNAM = ""ECITRPYN"" and SUPPEC.QLABEL = ""Exposure Interrupted"".",EC Exposure Interrupted,Does not map to an SDTMIG variable. The SDTM annotated CRF indicates that this field is NOT SUBMITTED..,ECITRPYN,28,[(Study) Treatment / Dose] Interrupted,Was the [(study) treatment/dose] interrupted?,Char,['NY']
94,Interventions,"This SDTM class captures investigational, therapeutic and other treatments that are administered to the subject (with some actual or expected physiological effect) either as specified by the study protocol (e.g., exposure to study drug), coincident with the study assessment period (e.g., concomitant medications), or self-administered by the subject (such as use of alcohol, tobacco, or caffeine). (Source: CDISC Controlled Terminology, GNRLOBSC, C103374, 2023-06-30)",EC,Exposure as Collected,"An interventions domain that contains information about protocol-specified study treatment administrations, as collected. (Source: CDISC Controlled Terminology, DOMAIN, C117466, 2023-6-28)",O,The collected duration of the treatment interruption.,"This field is used to collect the duration of treatment interruption. In some situations, the duration of the interruption may not be collected but calculated from the treatment start and end times recorded elsewhere in the CRF.",EC Interruption Duration,"This does not map directly to an SDTMIG variable. This information could be submitted in a SUPPEC dataset as the value of SUPPEC.QVAL where SUPPEC.QNAM=""ECITRPD"" and SUPPEC.QLABEL= ""Interruption Duration"". Concatenate the collected treatment interruption duration and the duration unit components and create ECITRPD using ISO 8601 Period format. Refer to the current SDTM and SDTMIG for instructions on placement of NSVs in SDTM domains.",ECCINTD,29,(Interruption) Duration,What was the duration of the treatment interruption?,Char,['NY']
95,Interventions,"This SDTM class captures investigational, therapeutic and other treatments that are administered to the subject (with some actual or expected physiological effect) either as specified by the study protocol (e.g., exposure to study drug), coincident with the study assessment period (e.g., concomitant medications), or self-administered by the subject (such as use of alcohol, tobacco, or caffeine). (Source: CDISC Controlled Terminology, GNRLOBSC, C103374, 2023-06-30)",EC,Exposure as Collected,"An interventions domain that contains information about protocol-specified study treatment administrations, as collected. (Source: CDISC Controlled Terminology, DOMAIN, C117466, 2023-6-28)",O,The unit for the collected duration of treatment interruption.,The unit should be collected as a qualifier to the number for duration.,EC Interruption Duration Units,"This does not map directly to an SDTMIG variable. This information could be submitted in a SUPPEC dataset as the value of SUPPEC.QVAL where SUPPEC.QNAM = ""ECITRPD"" and SUPPEC.QLABEL= ""Interruption Duration"". Concatenate the collected treatment interruption duration and the duration unit components and create ECITRPD using ISO 8601 Period format. Refer to the current SDTM and SDTMIG for instructions on placement of NSVs in SDTM domains.",ECCINTDU,30,(Interruption Duration) Unit,What was the interruption duration unit?,Char,"['UNIT', 'EXINTPU']"
96,Interventions,"This SDTM class captures investigational, therapeutic and other treatments that are administered to the subject (with some actual or expected physiological effect) either as specified by the study protocol (e.g., exposure to study drug), coincident with the study assessment period (e.g., concomitant medications), or self-administered by the subject (such as use of alcohol, tobacco, or caffeine). (Source: CDISC Controlled Terminology, GNRLOBSC, C103374, 2023-06-30)",EC,Exposure as Collected,"An interventions domain that contains information about protocol-specified study treatment administrations, as collected. (Source: CDISC Controlled Terminology, DOMAIN, C117466, 2023-6-28)",O,A description of the anatomical location of administration.,"Collected or preprinted when the sponsor needs to identify the specific anatomical location where the study treatment was administered. LAT, DIR, PORTOT are used to further describe the anatomical location.",EC Location of Dose Administration,Maps directly to the SDTMIG variable listed in the SDTMIG Target column.,ECLOC,31,Anatomical Location,What was the anatomical location of the ([study treatment/dose]) administration?,Char,['LOC']
97,Interventions,"This SDTM class captures investigational, therapeutic and other treatments that are administered to the subject (with some actual or expected physiological effect) either as specified by the study protocol (e.g., exposure to study drug), coincident with the study assessment period (e.g., concomitant medications), or self-administered by the subject (such as use of alcohol, tobacco, or caffeine). (Source: CDISC Controlled Terminology, GNRLOBSC, C103374, 2023-06-30)",EC,Exposure as Collected,"An interventions domain that contains information about protocol-specified study treatment administrations, as collected. (Source: CDISC Controlled Terminology, DOMAIN, C117466, 2023-6-28)",O,"Qualifier for anatomical location, further detailing side of the body for the study treatment administration.",Further details the laterality of the location where the study treatment was administered. This may be preprinted or collected. Sponsors may collect the data using a subset list of controlled terminology on the CRF.,Exposure as Collected Laterality,Maps directly to the SDTMIG variable listed in the SDTMIG Target column.,ECLAT,32,Side,What was the side of the anatomical location of the ([study treatment/dose]) administration?,Char,['LAT']
98,Interventions,"This SDTM class captures investigational, therapeutic and other treatments that are administered to the subject (with some actual or expected physiological effect) either as specified by the study protocol (e.g., exposure to study drug), coincident with the study assessment period (e.g., concomitant medications), or self-administered by the subject (such as use of alcohol, tobacco, or caffeine). (Source: CDISC Controlled Terminology, GNRLOBSC, C103374, 2023-06-30)",EC,Exposure as Collected,"An interventions domain that contains information about protocol-specified study treatment administrations, as collected. (Source: CDISC Controlled Terminology, DOMAIN, C117466, 2023-6-28)",O,"Qualifier further detailing the position of the anatomical location relative to the center of the body, organ, or specimen.",May be preprinted or collected when the sponsor needs to identify the directionality of the anatomical location. Sponsors may collect the data using a subset list of controlled terminology on the CRF.,Exposure as Collected Directionality,Maps directly to the SDTMIG variable listed in the SDTMIG Target column.,ECDIR,33,Directionality,What was the directionality of the anatomical location of the ([study treatment/dose]) administration?,Char,['DIR']
99,Interventions,"This SDTM class captures investigational, therapeutic and other treatments that are administered to the subject (with some actual or expected physiological effect) either as specified by the study protocol (e.g., exposure to study drug), coincident with the study assessment period (e.g., concomitant medications), or self-administered by the subject (such as use of alcohol, tobacco, or caffeine). (Source: CDISC Controlled Terminology, GNRLOBSC, C103374, 2023-06-30)",EC,Exposure as Collected,"An interventions domain that contains information about protocol-specified study treatment administrations, as collected. (Source: CDISC Controlled Terminology, DOMAIN, C117466, 2023-6-28)",O,The amount of the prepared product (treatment + vehicle) administered or given.,Administration amount that was given to the subject. \n Note: Should not be the diluent amount alone. The ECTRTV field may be collected if it cannot be determined from other sources.,EC Vehicle Amount,Maps directly to the SDTMIG variable listed in the SDTMIG Target column. The SDTM variable ECTRTV may also be populated during the process of creating the SDTM submission datasets.,ECVAMT,34,Total Amount (Drug + Vehicle),What was the total amount (Drug + Vehicle) (of [study treatment/dose]) administered?,Num,['DIR']
100,Interventions,"This SDTM class captures investigational, therapeutic and other treatments that are administered to the subject (with some actual or expected physiological effect) either as specified by the study protocol (e.g., exposure to study drug), coincident with the study assessment period (e.g., concomitant medications), or self-administered by the subject (such as use of alcohol, tobacco, or caffeine). (Source: CDISC Controlled Terminology, GNRLOBSC, C103374, 2023-06-30)",EC,Exposure as Collected,"An interventions domain that contains information about protocol-specified study treatment administrations, as collected. (Source: CDISC Controlled Terminology, DOMAIN, C117466, 2023-6-28)",O,The unit of measurement for the prepared product (treatment + vehicle).,Unit of the administration amount,EC Vehicle Amount Units,Maps directly to the SDTMIG variable listed in the SDTMIG Target column.,ECVAMTU,35,Unit,What was the unit for the amount (of [study treatment/dose]) administered?,Char,['UNIT']
101,Interventions,"This SDTM class captures investigational, therapeutic and other treatments that are administered to the subject (with some actual or expected physiological effect) either as specified by the study protocol (e.g., exposure to study drug), coincident with the study assessment period (e.g., concomitant medications), or self-administered by the subject (such as use of alcohol, tobacco, or caffeine). (Source: CDISC Controlled Terminology, GNRLOBSC, C103374, 2023-06-30)",EC,Exposure as Collected,"An interventions domain that contains information about protocol-specified study treatment administrations, as collected. (Source: CDISC Controlled Terminology, DOMAIN, C117466, 2023-6-28)",O,The flow rate for the total amount of drug + vehicle administered to the subject.,The infusion rate can be used to derive dose.,Exposure as Collected Infusion Rate,"This does not map directly to an SDTMIG variable. This information could be submitted in a SUPPEC dataset as the value of SUPPEC.QVAL where SUPPEC.QNAM=""ECFLRT"" and SUPPEC.QLABEL= ""Infusion Rate"". Refer to the current SDTM and SDTMIG for instructions on placement of NSVs in SDTM domains.",ECFLRT,36,Infusion Rate,What was the [study treatment/dose] infusion rate?,Num,['UNIT']
102,Interventions,"This SDTM class captures investigational, therapeutic and other treatments that are administered to the subject (with some actual or expected physiological effect) either as specified by the study protocol (e.g., exposure to study drug), coincident with the study assessment period (e.g., concomitant medications), or self-administered by the subject (such as use of alcohol, tobacco, or caffeine). (Source: CDISC Controlled Terminology, GNRLOBSC, C103374, 2023-06-30)",EC,Exposure as Collected,"An interventions domain that contains information about protocol-specified study treatment administrations, as collected. (Source: CDISC Controlled Terminology, DOMAIN, C117466, 2023-6-28)",O,The unit of measure for the flow rate for the total amount of drug + vehicle administered to the subject.,Unit of the infusion rate,Exposure as Collected Infusion Rate Unit,"This does not map directly to an SDTMIG variable. This information could be submitted in a SUPPEC dataset as the value of SUPPEC.QVAL where SUPPEC.QNAM=""ECFLRTU"" and SUPPEC.QLABEL= ""Infusion Rate Unit"". Refer to the current SDTM and SDTMIG for instructions on placement of NSVs in SDTM domains.",ECFLRTU,37,Infusion Rate Unit,What was the unit for the ([study treatment/dose]) infusion rate?,Char,"['UNIT', 'EXFLRTU']"
103,Interventions,"This SDTM class captures investigational, therapeutic and other treatments that are administered to the subject (with some actual or expected physiological effect) either as specified by the study protocol (e.g., exposure to study drug), coincident with the study assessment period (e.g., concomitant medications), or self-administered by the subject (such as use of alcohol, tobacco, or caffeine). (Source: CDISC Controlled Terminology, GNRLOBSC, C103374, 2023-06-30)",EC,Exposure as Collected,"An interventions domain that contains information about protocol-specified study treatment administrations, as collected. (Source: CDISC Controlled Terminology, DOMAIN, C117466, 2023-6-28)",R/C,"A text description of the planned time point when measurements should be taken, as defined in the protocol.","Planned time points are needed to differentiate multiple sequential assessments. It is recommended that time points should be preprinted on the CRF rather than collected in a field that requires the site to enter text. If the form is laid out as a grid, then words such as ""Planned Time Point"" can be included as the column heading.",EC Planned Time Point Name,"Maps directly to the SDTMIG variable listed in the SDTMIG Target column. See the SDTMIG for additional information on representing time points. The SDTMIG time-point anchors ECTPTREF (text description) and ECRFTDTC (date/time) may be needed, as well as SDTMIG variables ECTPTNUM, ECELTM.",ECTPT,38,[Planned Time Point Name],What was the planned time point for [study treatment/dose]?,Char,"['UNIT', 'EXFLRTU']"
104,Interventions,"This SDTM class captures investigational, therapeutic and other treatments that are administered to the subject (with some actual or expected physiological effect) either as specified by the study protocol (e.g., exposure to study drug), coincident with the study assessment period (e.g., concomitant medications), or self-administered by the subject (such as use of alcohol, tobacco, or caffeine). (Source: CDISC Controlled Terminology, GNRLOBSC, C103374, 2023-06-30)",EC,Exposure as Collected,"An interventions domain that contains information about protocol-specified study treatment administrations, as collected. (Source: CDISC Controlled Terminology, DOMAIN, C117466, 2023-6-28)",O,An indication of whether the subject completed the intended regimen.,"Depending on how the study treatment details are collected on the CRF/eCRF, it may be possible to derive those data if the regimen data are collected.",Completed Treatment,"This does not map directly to an SDTMIG variable. This information could be submitted in a SUPPEC dataset as the value of SUPPEC.QVAL where SUPPEC.QNAM = ""ECTRTCMP"" and SUPPEC.QLABEL =""Completed Treatment"". Refer to the current SDTM and SDTMIG for instructions on placement of NSVs in SDTM domains.",ECTRTCMP,39,Completed Treatment,Did the subject complete the full course of [study treatment/dose]?,Char,['NY']
105,Interventions,"This SDTM class captures investigational, therapeutic and other treatments that are administered to the subject (with some actual or expected physiological effect) either as specified by the study protocol (e.g., exposure to study drug), coincident with the study assessment period (e.g., concomitant medications), or self-administered by the subject (such as use of alcohol, tobacco, or caffeine). (Source: CDISC Controlled Terminology, GNRLOBSC, C103374, 2023-06-30)",EX,Exposure,"An interventions domain that contains the details of a subject's exposure to protocol-specified study treatment. Study treatment may be any intervention that is prospectively defined as a test material within a study, and is typically but not always supplied to the subject. (Source: CDISC Controlled Terminology, DOMAIN, C49587, 2023-6-28)",HR,A unique identifier for a study.,"Although this field is not typically captured on a CRF, it should be displayed clearly on the CRF and/or in the EDC system. This field can be included into the database or populated during SDTM-based dataset creation before submission.",Study Identifier,Maps directly to the SDTMIG variable listed in the SDTMIG Target column.,STUDYID,1,[Protocol/Study],What is the study identifier?,Char,['NY']
106,Interventions,"This SDTM class captures investigational, therapeutic and other treatments that are administered to the subject (with some actual or expected physiological effect) either as specified by the study protocol (e.g., exposure to study drug), coincident with the study assessment period (e.g., concomitant medications), or self-administered by the subject (such as use of alcohol, tobacco, or caffeine). (Source: CDISC Controlled Terminology, GNRLOBSC, C103374, 2023-06-30)",EX,Exposure,"An interventions domain that contains the details of a subject's exposure to protocol-specified study treatment. Study treatment may be any intervention that is prospectively defined as a test material within a study, and is typically but not always supplied to the subject. (Source: CDISC Controlled Terminology, DOMAIN, C49587, 2023-6-28)",HR,A unique identifier for a site within a study.,"Paper: This is typically preprinted in the header of each CRF page for single-site studies. For studies with multiple sites, this field may be left blank so that the number can be recorded by the site, or it may be preprinted on the CRFs that are shipped to each site. \n EDC: This should be prepopulated.",Study Site Identifier,Maps directly to the SDTMIG variable listed in the SDTMIG Target column.,SITEID,2,Site (Identifier),What is the site identifier?,Char,['NY']
107,Interventions,"This SDTM class captures investigational, therapeutic and other treatments that are administered to the subject (with some actual or expected physiological effect) either as specified by the study protocol (e.g., exposure to study drug), coincident with the study assessment period (e.g., concomitant medications), or self-administered by the subject (such as use of alcohol, tobacco, or caffeine). (Source: CDISC Controlled Terminology, GNRLOBSC, C103374, 2023-06-30)",EX,Exposure,"An interventions domain that contains the details of a subject's exposure to protocol-specified study treatment. Study treatment may be any intervention that is prospectively defined as a test material within a study, and is typically but not always supplied to the subject. (Source: CDISC Controlled Terminology, DOMAIN, C49587, 2023-6-28)",HR,A unique subject identifier within a site and a study.,"Paper: This is typically recorded in the header of each CRF page. EDC: The subject identifiers may be system-generated. This CDASH variable is typically collected in all CDASH domains. However, this CDASH variable is populated only in the SDTMIG DM domain. For more information, refer to the SDTMIG.",Subject Identifier for the Study,Maps directly to the SDTMIG variable listed in the SDTMIG Target column.,SUBJID,3,[Subject/Participant] (Identifier),What [is/was] the (study) [subject/participant] identifier?,Char,['NY']
108,Interventions,"This SDTM class captures investigational, therapeutic and other treatments that are administered to the subject (with some actual or expected physiological effect) either as specified by the study protocol (e.g., exposure to study drug), coincident with the study assessment period (e.g., concomitant medications), or self-administered by the subject (such as use of alcohol, tobacco, or caffeine). (Source: CDISC Controlled Terminology, GNRLOBSC, C103374, 2023-06-30)",EX,Exposure,"An interventions domain that contains the details of a subject's exposure to protocol-specified study treatment. Study treatment may be any intervention that is prospectively defined as a test material within a study, and is typically but not always supplied to the subject. (Source: CDISC Controlled Terminology, DOMAIN, C49587, 2023-6-28)",R/C,Name of the trial epoch with which this element of the arm is associated.,"If the same information is collected more than once in different periods/parts of a study (e.g., Disposition), EPOCH may be needed to differentiate them. Typically, the trial epoch will be preprinted on the CRF as the title of the page. See the SDTMIG for further information regarding EPOCH.",Epoch,Maps directly to the SDTMIG variable listed in the SDTMIG Target column.,EPOCH,4,[Epoch](Period/Phase/Sponsor-defined phrase),What is the trial epoch?,Char,['EPOCH']
109,Interventions,"This SDTM class captures investigational, therapeutic and other treatments that are administered to the subject (with some actual or expected physiological effect) either as specified by the study protocol (e.g., exposure to study drug), coincident with the study assessment period (e.g., concomitant medications), or self-administered by the subject (such as use of alcohol, tobacco, or caffeine). (Source: CDISC Controlled Terminology, GNRLOBSC, C103374, 2023-06-30)",EX,Exposure,"An interventions domain that contains the details of a subject's exposure to protocol-specified study treatment. Study treatment may be any intervention that is prospectively defined as a test material within a study, and is typically but not always supplied to the subject. (Source: CDISC Controlled Terminology, DOMAIN, C49587, 2023-6-28)",O,An indication of whether the subject took study medication/treatment.,The intent/purpose of collecting this field is to help with data cleaning and monitoring. It provides verification that all other fields on the CRF were deliberately left blank. The EXYN variable is a cleaning or EDC convention meant to indicate that the exposure form should be completed or inserted into the case book.,Any Study Treatment Taken,Does not map to an SDTMIG variable. The SDTM annotated CRF indicates that this field is NOT SUBMITTED.,EXYN,5,Any Study Treatments,Were any[study treatment/dose] taken?,Char,['NY']
110,Interventions,"This SDTM class captures investigational, therapeutic and other treatments that are administered to the subject (with some actual or expected physiological effect) either as specified by the study protocol (e.g., exposure to study drug), coincident with the study assessment period (e.g., concomitant medications), or self-administered by the subject (such as use of alcohol, tobacco, or caffeine). (Source: CDISC Controlled Terminology, GNRLOBSC, C103374, 2023-06-30)",EX,Exposure,"An interventions domain that contains the details of a subject's exposure to protocol-specified study treatment. Study treatment may be any intervention that is prospectively defined as a test material within a study, and is typically but not always supplied to the subject. (Source: CDISC Controlled Terminology, DOMAIN, C49587, 2023-6-28)",O,A grouping of topic-variable values based on user-defined characteristics.,"Sponsor-defined controlled terminology. This would most commonly be either a heading or a preprinted category value on the CRF, and not a question to which the site would provide an answer. If a question is asked, the response would typically be a sponsor-defined codelist. If the form is laid out as a grid, then words such as ""Category"" can be included as the column header.",Category of Treatment,Maps directly to the SDTMIG variable listed in the SDTMIG Target column.,EXCAT,6,[Study Treatment Category]; NULL,What is the category of the [study treatment/dose] ?,Char,['NY']
111,Interventions,"This SDTM class captures investigational, therapeutic and other treatments that are administered to the subject (with some actual or expected physiological effect) either as specified by the study protocol (e.g., exposure to study drug), coincident with the study assessment period (e.g., concomitant medications), or self-administered by the subject (such as use of alcohol, tobacco, or caffeine). (Source: CDISC Controlled Terminology, GNRLOBSC, C103374, 2023-06-30)",EX,Exposure,"An interventions domain that contains the details of a subject's exposure to protocol-specified study treatment. Study treatment may be any intervention that is prospectively defined as a test material within a study, and is typically but not always supplied to the subject. (Source: CDISC Controlled Terminology, DOMAIN, C49587, 2023-6-28)",O,A sub-division of the EXCAT values based on user-defined characteristics.,Sponsor-defined controlled terminology. This would most commonly be preprinted on the CRF or screen and prepopulated in the data management system. This is not typically a question to which the site would provide an answer. EXSCAT can only be used if there is an EXCAT and it must be a subcategorization of EXCAT.,Subcategory of Treatment,Maps directly to the SDTMIG variable listed in the SDTMIG Target column.,EXSCAT,7,[Study Treatment Subcategory]; NULL,What is the subcategory of the [study treatment/dose] ?,Char,['NY']
112,Interventions,"This SDTM class captures investigational, therapeutic and other treatments that are administered to the subject (with some actual or expected physiological effect) either as specified by the study protocol (e.g., exposure to study drug), coincident with the study assessment period (e.g., concomitant medications), or self-administered by the subject (such as use of alcohol, tobacco, or caffeine). (Source: CDISC Controlled Terminology, GNRLOBSC, C103374, 2023-06-30)",EX,Exposure,"An interventions domain that contains the details of a subject's exposure to protocol-specified study treatment. Study treatment may be any intervention that is prospectively defined as a test material within a study, and is typically but not always supplied to the subject. (Source: CDISC Controlled Terminology, DOMAIN, C49587, 2023-6-28)",R/C,Name of the study treatment or intervention given per single administration or during the constant dosing interval for the observation.,"EXTRT captures the name of the investigational treatment. This is typically collected for open label studies and populated for blinded studies during the SDTM-based dataset creation. Because EXTRT is the SDTMIG topic variable, it is a required variable in SDTM and must have a value in CDASH or a plan to populate it in the SDTM submission datasets (i.e., collected or populated from other sources).",Name of Treatment,Maps directly to the SDTMIG variable listed in the SDTMIG Target column.,EXTRT,8,[Study Treatment/Investigational Product Name],What was the [study treatment/investigational product] name?,Char,['NY']
113,Interventions,"This SDTM class captures investigational, therapeutic and other treatments that are administered to the subject (with some actual or expected physiological effect) either as specified by the study protocol (e.g., exposure to study drug), coincident with the study assessment period (e.g., concomitant medications), or self-administered by the subject (such as use of alcohol, tobacco, or caffeine). (Source: CDISC Controlled Terminology, GNRLOBSC, C103374, 2023-06-30)",EX,Exposure,"An interventions domain that contains the details of a subject's exposure to protocol-specified study treatment. Study treatment may be any intervention that is prospectively defined as a test material within a study, and is typically but not always supplied to the subject. (Source: CDISC Controlled Terminology, DOMAIN, C49587, 2023-6-28)",R/C,"An internal or external identifier (e.g., kit number, bottle label, vial identifier).","This packaging identifier (e.g., kit number, bottle label, vial identifier) may be collected in different ways (e.g., affixing label onto CRF, scanning a bar code). For some study dosing regimens, greater granularity for treatment identifiers may be needed.",Exposure Reference ID,Maps directly to the SDTMIG variable listed in the SDTMIG Target column.,EXREFID,9,Treatment Label Identifier,What is the [study treatment/dose] label identifier?,Char,['NY']
114,Interventions,"This SDTM class captures investigational, therapeutic and other treatments that are administered to the subject (with some actual or expected physiological effect) either as specified by the study protocol (e.g., exposure to study drug), coincident with the study assessment period (e.g., concomitant medications), or self-administered by the subject (such as use of alcohol, tobacco, or caffeine). (Source: CDISC Controlled Terminology, GNRLOBSC, C103374, 2023-06-30)",EX,Exposure,"An interventions domain that contains the details of a subject's exposure to protocol-specified study treatment. Study treatment may be any intervention that is prospectively defined as a test material within a study, and is typically but not always supplied to the subject. (Source: CDISC Controlled Terminology, DOMAIN, C49587, 2023-6-28)",R/C,Lot number of the EXTRT product.,"The lot number identifies the manufacturing batch of the study treatment. In open-label studies, the reference number on the study treatment container may represent an actual lot number and is submitted using EXLOT. This variable may be populated during the process of creating the SDTM submission datasets. Do not collect other identification variables in this field.",Lot Number,Maps directly to the SDTMIG variable listed in the SDTMIG Target column.,EXLOT,10,Lot Number,What was the lot number of the[study treatment/dose] used?,Char,['NY']
115,Interventions,"This SDTM class captures investigational, therapeutic and other treatments that are administered to the subject (with some actual or expected physiological effect) either as specified by the study protocol (e.g., exposure to study drug), coincident with the study assessment period (e.g., concomitant medications), or self-administered by the subject (such as use of alcohol, tobacco, or caffeine). (Source: CDISC Controlled Terminology, GNRLOBSC, C103374, 2023-06-30)",EX,Exposure,"An interventions domain that contains the details of a subject's exposure to protocol-specified study treatment. Study treatment may be any intervention that is prospectively defined as a test material within a study, and is typically but not always supplied to the subject. (Source: CDISC Controlled Terminology, DOMAIN, C49587, 2023-6-28)",O,An indication that the subject has abstained from food/water for the specified amount of time.,"Because some study treatments may have a food effect, it is important to know whether the dose was taken after the subject had fasted.",Exposure Fasting Status,Maps directly to the SDTMIG variable listed in the SDTMIG Target column.,EXFAST,11,Fasting,Was the subject fasting?,Char,['NY']
116,Interventions,"This SDTM class captures investigational, therapeutic and other treatments that are administered to the subject (with some actual or expected physiological effect) either as specified by the study protocol (e.g., exposure to study drug), coincident with the study assessment period (e.g., concomitant medications), or self-administered by the subject (such as use of alcohol, tobacco, or caffeine). (Source: CDISC Controlled Terminology, GNRLOBSC, C103374, 2023-06-30)",EX,Exposure,"An interventions domain that contains the details of a subject's exposure to protocol-specified study treatment. Study treatment may be any intervention that is prospectively defined as a test material within a study, and is typically but not always supplied to the subject. (Source: CDISC Controlled Terminology, DOMAIN, C49587, 2023-6-28)",R/C,The dosage form in which the EXTRT is physically presented.,This must be collected if it cannot be determined from other sources or if there are multiple options.,Exposure Dose Form,Maps directly to the SDTMIG variable listed in the SDTMIG Target column.,EXDOSFRM,12,Dose Form,What was the dose form of the [study treatment/dose] ?,Char,"['FRM', 'EXDOSFRM']"
117,Interventions,"This SDTM class captures investigational, therapeutic and other treatments that are administered to the subject (with some actual or expected physiological effect) either as specified by the study protocol (e.g., exposure to study drug), coincident with the study assessment period (e.g., concomitant medications), or self-administered by the subject (such as use of alcohol, tobacco, or caffeine). (Source: CDISC Controlled Terminology, GNRLOBSC, C103374, 2023-06-30)",EX,Exposure,"An interventions domain that contains the details of a subject's exposure to protocol-specified study treatment. Study treatment may be any intervention that is prospectively defined as a test material within a study, and is typically but not always supplied to the subject. (Source: CDISC Controlled Terminology, DOMAIN, C49587, 2023-6-28)",HR,"The start date of study treatment, represented in an unambiguous date format (e.g., DD-MON-YYYY).","Date when the constant dosing interval of the study treatment started or single administration occurred. When collecting the date for an individual dose, the word ""start"" may be omitted from the question text and prompt.",Exposure Start Date,"This does not map directly to an SDTMIG variable. For the SDTM submission dataset, concatenate all collected CDASH START DATE and TIME components and populate the SDTMIG variable EXSTDTC in ISO 8601 format.",EXSTDAT,13,(Start) Date,What was the ([intended/planned/actual]) ([study treatment/dose]) (start) date?,Char,"['FRM', 'EXDOSFRM']"
118,Interventions,"This SDTM class captures investigational, therapeutic and other treatments that are administered to the subject (with some actual or expected physiological effect) either as specified by the study protocol (e.g., exposure to study drug), coincident with the study assessment period (e.g., concomitant medications), or self-administered by the subject (such as use of alcohol, tobacco, or caffeine). (Source: CDISC Controlled Terminology, GNRLOBSC, C103374, 2023-06-30)",EX,Exposure,"An interventions domain that contains the details of a subject's exposure to protocol-specified study treatment. Study treatment may be any intervention that is prospectively defined as a test material within a study, and is typically but not always supplied to the subject. (Source: CDISC Controlled Terminology, DOMAIN, C49587, 2023-6-28)",R/C,"The start time of the study treatment, represented in an unambiguous time format (e.g., hh:mm:ss).",Recommend collecting the time a medication was started only when a protocol or data collection scenario requires it.,Exposure Start Time,"This does not map directly to an SDTMIG variable. For the SDTM submission dataset, concatenate all collected CDASH START DATE and TIME components and populate the SDTMIG variable EXSTDTC in ISO 8601 format.",EXSTTIM,14,(Start) Time,What was the ([intended/planned/actual]) ([study treatment/dose]) (start) time?,Char,"['FRM', 'EXDOSFRM']"
119,Interventions,"This SDTM class captures investigational, therapeutic and other treatments that are administered to the subject (with some actual or expected physiological effect) either as specified by the study protocol (e.g., exposure to study drug), coincident with the study assessment period (e.g., concomitant medications), or self-administered by the subject (such as use of alcohol, tobacco, or caffeine). (Source: CDISC Controlled Terminology, GNRLOBSC, C103374, 2023-06-30)",EX,Exposure,"An interventions domain that contains the details of a subject's exposure to protocol-specified study treatment. Study treatment may be any intervention that is prospectively defined as a test material within a study, and is typically but not always supplied to the subject. (Source: CDISC Controlled Terminology, DOMAIN, C49587, 2023-6-28)",R/C,"The end date of study treatment, represented in an unambiguous date format (e.g., DD-MON-YYYY).","If start date and end date are not expected to be on the same date, the end date is required. If the study design indicates that the start and end date are on the same day, the end date is not required because it can be assigned to be equal to the start date.",Exposure End Date,"This does not map directly to an SDTMIG variable. For the SDTM submission dataset, concatenate all collected CDASH END DATE and TIME components and populate the SDTMIG variable EXENDTC in ISO 8601 format.",EXENDAT,15,(End) Date,What was the ([intended/planned/actual]) ([study treatment/dose]) (end) date?,Char,"['FRM', 'EXDOSFRM']"
120,Interventions,"This SDTM class captures investigational, therapeutic and other treatments that are administered to the subject (with some actual or expected physiological effect) either as specified by the study protocol (e.g., exposure to study drug), coincident with the study assessment period (e.g., concomitant medications), or self-administered by the subject (such as use of alcohol, tobacco, or caffeine). (Source: CDISC Controlled Terminology, GNRLOBSC, C103374, 2023-06-30)",EX,Exposure,"An interventions domain that contains the details of a subject's exposure to protocol-specified study treatment. Study treatment may be any intervention that is prospectively defined as a test material within a study, and is typically but not always supplied to the subject. (Source: CDISC Controlled Terminology, DOMAIN, C49587, 2023-6-28)",R/C,"The end time of treatment, represented in an unambiguous time format (e.g., hh:mm:ss).","Recommend collecting the time a medication was ended when a protocol or data collection scenario requires it. For infusions, the end time of the infusion is typically needed.",Exposure End Time,"This does not map directly to an SDTMIG variable. For the SDTM submission dataset, concatenate all collected CDASH END DATE and TIME components and populate the SDTMIG variable EXENDTC in ISO 8601 format.",EXENTIM,16,(End) Time,What was the ([intended/planned/actual]) ([study treatment/dose]) (end) time?,Char,"['FRM', 'EXDOSFRM']"
121,Interventions,"This SDTM class captures investigational, therapeutic and other treatments that are administered to the subject (with some actual or expected physiological effect) either as specified by the study protocol (e.g., exposure to study drug), coincident with the study assessment period (e.g., concomitant medications), or self-administered by the subject (such as use of alcohol, tobacco, or caffeine). (Source: CDISC Controlled Terminology, GNRLOBSC, C103374, 2023-06-30)",EX,Exposure,"An interventions domain that contains the details of a subject's exposure to protocol-specified study treatment. Study treatment may be any intervention that is prospectively defined as a test material within a study, and is typically but not always supplied to the subject. (Source: CDISC Controlled Terminology, DOMAIN, C49587, 2023-6-28)",R/C,Dose (per administration).,"Dose or amount taken for single administration of study treatment or per constant dosing interval recorded. Dose must be collected if it cannot be determined via other methods (e.g., from diary data, drug accountability data, protocol). The data collected in this dose text-format field should be mapped to either SDTMIG variable EXDOSE (if numeric) or EXDOSTXT (if text).",Exposure Dose Description,"This does not map directly to an SDTMIG variable. Numeric values map to EXDOSE in SDTM. Non-numeric values (e.g., 200-400) map to EXDOSTXT in SDTM.",EXDSTXT,17,Dose,What was the dose [per administration] (of [study treatment/dose]) ?,Char,"['FRM', 'EXDOSFRM']"
122,Interventions,"This SDTM class captures investigational, therapeutic and other treatments that are administered to the subject (with some actual or expected physiological effect) either as specified by the study protocol (e.g., exposure to study drug), coincident with the study assessment period (e.g., concomitant medications), or self-administered by the subject (such as use of alcohol, tobacco, or caffeine). (Source: CDISC Controlled Terminology, GNRLOBSC, C103374, 2023-06-30)",EX,Exposure,"An interventions domain that contains the details of a subject's exposure to protocol-specified study treatment. Study treatment may be any intervention that is prospectively defined as a test material within a study, and is typically but not always supplied to the subject. (Source: CDISC Controlled Terminology, DOMAIN, C49587, 2023-6-28)",R/C,"The unit for intended dose (per administration) for EXDOSE, EXDOSTOT, or EXDOSTXT.","Unit of dose or amount taken per constant dosing interval recorded. Dose unit must be collected if it cannot be determined via other methods (e.g., from protocol, randomization data). The unit should be preprinted on the CRF or a field provided on the CRF to capture it. A CDASH Subset Controlled Terminology Codelist Name is available for general dose and volume units.",Exposure Dose Unit,Maps directly to the SDTMIG variable listed in the SDTMIG Target column.,EXDOSU,18,Unit,What was the unit for the dose?,Char,['UNIT']
123,Interventions,"This SDTM class captures investigational, therapeutic and other treatments that are administered to the subject (with some actual or expected physiological effect) either as specified by the study protocol (e.g., exposure to study drug), coincident with the study assessment period (e.g., concomitant medications), or self-administered by the subject (such as use of alcohol, tobacco, or caffeine). (Source: CDISC Controlled Terminology, GNRLOBSC, C103374, 2023-06-30)",EX,Exposure,"An interventions domain that contains the details of a subject's exposure to protocol-specified study treatment. Study treatment may be any intervention that is prospectively defined as a test material within a study, and is typically but not always supplied to the subject. (Source: CDISC Controlled Terminology, DOMAIN, C49587, 2023-6-28)",R/C,The number of doses given/administered/taken during a specific interval.,"This may be collected if it cannot be determined from other sources or if there are multiple options. When possible, the options for dose/amount frequency are preprinted on the CRF. When collected, the recommendation is to collect dosing information in separate fields (e.g., ECDOSE, ECDOSEU, ECDOSFRQ) for specific and consistent data collection and to enable programmatically using these data.",Exposure Dosing Frequency per Interval,Maps directly to the SDTMIG variable listed in the SDTMIG Target column.,EXDOSFRQ,19,Frequency,What was the frequency of[study treatment/dose] dosing?,Char,['FREQ']
124,Interventions,"This SDTM class captures investigational, therapeutic and other treatments that are administered to the subject (with some actual or expected physiological effect) either as specified by the study protocol (e.g., exposure to study drug), coincident with the study assessment period (e.g., concomitant medications), or self-administered by the subject (such as use of alcohol, tobacco, or caffeine). (Source: CDISC Controlled Terminology, GNRLOBSC, C103374, 2023-06-30)",EX,Exposure,"An interventions domain that contains the details of a subject's exposure to protocol-specified study treatment. Study treatment may be any intervention that is prospectively defined as a test material within a study, and is typically but not always supplied to the subject. (Source: CDISC Controlled Terminology, DOMAIN, C49587, 2023-6-28)",R/C,The route of administration of the study treatment.,"This may be collected if it cannot be determined via other methods (e.g., from protocol) or if there are multiple options.",Exposure Route of Administration,Maps directly to the SDTMIG variable listed in the SDTMIG Target column.,EXROUTE,20,Route,What was the route of administration (of the [study treatment/dose] )?,Char,"['ROUTE', 'EXROUTE']"
125,Interventions,"This SDTM class captures investigational, therapeutic and other treatments that are administered to the subject (with some actual or expected physiological effect) either as specified by the study protocol (e.g., exposure to study drug), coincident with the study assessment period (e.g., concomitant medications), or self-administered by the subject (such as use of alcohol, tobacco, or caffeine). (Source: CDISC Controlled Terminology, GNRLOBSC, C103374, 2023-06-30)",EX,Exposure,"An interventions domain that contains the details of a subject's exposure to protocol-specified study treatment. Study treatment may be any intervention that is prospectively defined as a test material within a study, and is typically but not always supplied to the subject. (Source: CDISC Controlled Terminology, DOMAIN, C49587, 2023-6-28)",O,The text description of the intended schedule or regimen for the Intervention.,"The regimen information may further clarify the dose administration and dose frequency (e.g., TWO WEEKS ON, TWO WEEKS OFF). This may be preprinted or collected. The sponsor may wish to create a codelist to collect this data consistently.",Intended Dose Regimen,Maps directly to the SDTMIG variable listed in the SDTMIG Target column.,EXDOSRGM,21,Intended Dose Regimen,What was the intended dose regimen (of the [study treatment/dose] )?,Char,"['ROUTE', 'EXROUTE']"
126,Interventions,"This SDTM class captures investigational, therapeutic and other treatments that are administered to the subject (with some actual or expected physiological effect) either as specified by the study protocol (e.g., exposure to study drug), coincident with the study assessment period (e.g., concomitant medications), or self-administered by the subject (such as use of alcohol, tobacco, or caffeine). (Source: CDISC Controlled Terminology, GNRLOBSC, C103374, 2023-06-30)",EX,Exposure,"An interventions domain that contains the details of a subject's exposure to protocol-specified study treatment. Study treatment may be any intervention that is prospectively defined as a test material within a study, and is typically but not always supplied to the subject. (Source: CDISC Controlled Terminology, DOMAIN, C49587, 2023-6-28)",O,An indication of whether the dose was adjusted.,"Typically, the intent/purpose of collecting this field is to help with data cleaning and monitoring, as it provides a definitive response regarding any dose changes. It provides verification that the associate field on the CRF (EXADJ) was deliberately left blank. However, the sponsor may collect whether the dose was adjusted, without collecting the reason for the change.",Dose Adjusted,"When EXADJ is collected, does not map to an SDTMIG variable. The SDTM annotated CRF indicates that this field is NOT SUBMITTED. When EXADJ is not collected, the sponsor may submit this variable as a SUPPQ.",EXDOSADJ,22,(Dose) Adjusted,Was the dose adjusted?,Char,['NY']
127,Interventions,"This SDTM class captures investigational, therapeutic and other treatments that are administered to the subject (with some actual or expected physiological effect) either as specified by the study protocol (e.g., exposure to study drug), coincident with the study assessment period (e.g., concomitant medications), or self-administered by the subject (such as use of alcohol, tobacco, or caffeine). (Source: CDISC Controlled Terminology, GNRLOBSC, C103374, 2023-06-30)",EX,Exposure,"An interventions domain that contains the details of a subject's exposure to protocol-specified study treatment. Study treatment may be any intervention that is prospectively defined as a test material within a study, and is typically but not always supplied to the subject. (Source: CDISC Controlled Terminology, DOMAIN, C49587, 2023-6-28)",O,Description of or explanation for why a dose of the study treatment was adjusted.,"Captures the reason the dose was changed or modified. The reason may be chosen from a sponsor-defined list (e.g., adverse event, insufficient response) or entered as free text. May be used for variations from protocol-specified doses or changes from expected doses.",Reason for Dose Adjustment,Maps directly to the SDTMIG variable listed in the SDTMIG Target column.,EXADJ,23,Reason Adjusted,What was the reason the dose was adjusted (from planned)?,Char,['NY']
128,Interventions,"This SDTM class captures investigational, therapeutic and other treatments that are administered to the subject (with some actual or expected physiological effect) either as specified by the study protocol (e.g., exposure to study drug), coincident with the study assessment period (e.g., concomitant medications), or self-administered by the subject (such as use of alcohol, tobacco, or caffeine). (Source: CDISC Controlled Terminology, GNRLOBSC, C103374, 2023-06-30)",EX,Exposure,"An interventions domain that contains the details of a subject's exposure to protocol-specified study treatment. Study treatment may be any intervention that is prospectively defined as a test material within a study, and is typically but not always supplied to the subject. (Source: CDISC Controlled Terminology, DOMAIN, C49587, 2023-6-28)",O,An indication of whether the exposure was interrupted.,"The intent/purpose of collecting this field is to help with data cleaning and monitoring when the actual duration of the exposure is collected using the CDASH field EXCINTD. In some situations, if the actual duration of the interruption is not collected, or not derived, this information could be submitted in a SUPPEX.QVAL dataset where SUPPEX.QNAM = ""EXITRPYN"" and SUPPEX.QLABEL = ""Exposure Interrupted"".",EX Exposure Interrupted,Does not map to an SDTMIG variable. The SDTM annotated CRF indicates that this field is NOT SUBMITTED.,EXITRPYN,24,[(Study) Treatment / Dose] Interrupted,Was the [ (study) treatment/dose] interrupted?,Char,['NY']
129,Interventions,"This SDTM class captures investigational, therapeutic and other treatments that are administered to the subject (with some actual or expected physiological effect) either as specified by the study protocol (e.g., exposure to study drug), coincident with the study assessment period (e.g., concomitant medications), or self-administered by the subject (such as use of alcohol, tobacco, or caffeine). (Source: CDISC Controlled Terminology, GNRLOBSC, C103374, 2023-06-30)",EX,Exposure,"An interventions domain that contains the details of a subject's exposure to protocol-specified study treatment. Study treatment may be any intervention that is prospectively defined as a test material within a study, and is typically but not always supplied to the subject. (Source: CDISC Controlled Terminology, DOMAIN, C49587, 2023-6-28)",O,The collected duration of the treatment interruption.,"In some situations, the duration of the interruption may be calculated from the administration start and end times recorded elsewhere in the CRF.",Exposure Interruption Duration,"This does not map directly to an SDTMIG variable. This information could be submitted in a SUPPEX dataset as the value of SUPPEX.QVAL where SUPPEX.QNAM=""EXITRPD"" and SUPPEX.QLABEL= ""Interruption Duration"". Concatenate the collected treatment interruption duration and the duration unit components and create EXITRPD using ISO 8601 Period format. Refer to the current SDTM and SDTMIG for instructions on placement of NSVs in SDTM domains.",EXCINTD,25,(Interruption) Duration,"If the dose was interrupted, how long was the interruption?",Char,['NY']
130,Interventions,"This SDTM class captures investigational, therapeutic and other treatments that are administered to the subject (with some actual or expected physiological effect) either as specified by the study protocol (e.g., exposure to study drug), coincident with the study assessment period (e.g., concomitant medications), or self-administered by the subject (such as use of alcohol, tobacco, or caffeine). (Source: CDISC Controlled Terminology, GNRLOBSC, C103374, 2023-06-30)",EX,Exposure,"An interventions domain that contains the details of a subject's exposure to protocol-specified study treatment. Study treatment may be any intervention that is prospectively defined as a test material within a study, and is typically but not always supplied to the subject. (Source: CDISC Controlled Terminology, DOMAIN, C49587, 2023-6-28)",O,The unit for the collected duration of treatment interruption.,The unit should be collected and converted into ISO 8601 period format.,Exposure Interruption Duration Units,"This does not map directly to an SDTMIG variable. This information could be submitted in a SUPPEX dataset as the value of SUPPEX.QVAL where SUPPEX.QNAM = ""EXITRPD"" and SUPPEX.QLABEL= ""Interruption Duration"". Concatenate the collected treatment interruption duration and the duration unit components and create EXITRPDusing ISO 8601 Period format. Refer to the current SDTM and SDTMIG for instructions on placement of NSVs in SDTM domains.",EXCINTDU,26,(Interruption Duration) Unit,"If the dose was interrupted, what were the units for the interruption duration?",Char,"['UNIT', 'EXINTPU']"
131,Interventions,"This SDTM class captures investigational, therapeutic and other treatments that are administered to the subject (with some actual or expected physiological effect) either as specified by the study protocol (e.g., exposure to study drug), coincident with the study assessment period (e.g., concomitant medications), or self-administered by the subject (such as use of alcohol, tobacco, or caffeine). (Source: CDISC Controlled Terminology, GNRLOBSC, C103374, 2023-06-30)",EX,Exposure,"An interventions domain that contains the details of a subject's exposure to protocol-specified study treatment. Study treatment may be any intervention that is prospectively defined as a test material within a study, and is typically but not always supplied to the subject. (Source: CDISC Controlled Terminology, DOMAIN, C49587, 2023-6-28)",O,A description of the anatomical location of administration.,"Collected or preprinted when the sponsor needs to identify the specific anatomical location where the study treatment was administered. LAT, DIR, PORTOT are used to further describe the anatomical location.",Exposure Location of Dose Administration,Maps directly to the SDTMIG variable listed in the SDTMIG Target column.,EXLOC,27,Anatomical Location,What was the anatomical location of the ([study treatment/dose] ) administration?,Char,['LOC']
132,Interventions,"This SDTM class captures investigational, therapeutic and other treatments that are administered to the subject (with some actual or expected physiological effect) either as specified by the study protocol (e.g., exposure to study drug), coincident with the study assessment period (e.g., concomitant medications), or self-administered by the subject (such as use of alcohol, tobacco, or caffeine). (Source: CDISC Controlled Terminology, GNRLOBSC, C103374, 2023-06-30)",EX,Exposure,"An interventions domain that contains the details of a subject's exposure to protocol-specified study treatment. Study treatment may be any intervention that is prospectively defined as a test material within a study, and is typically but not always supplied to the subject. (Source: CDISC Controlled Terminology, DOMAIN, C49587, 2023-6-28)",O,The amount of the prepared product (treatment + vehicle) administered or given.,Administration amount that was given to the subject. Note: should not be the diluent amount alone. The ECTRTV field may be collected if it cannot be determined from other sources.,Exposure Vehicle Amount,Maps directly to the SDTMIG variable listed in the SDTMIG Target column. The SDTM variable ECTRTV may also be populated during the process of creating the SDTM submission datasets.,EXVAMT,28,Total Amount,What was the total amount (Drug + Vehicle)(of [study treatment/dose] ) administered?,Num,['LOC']
133,Interventions,"This SDTM class captures investigational, therapeutic and other treatments that are administered to the subject (with some actual or expected physiological effect) either as specified by the study protocol (e.g., exposure to study drug), coincident with the study assessment period (e.g., concomitant medications), or self-administered by the subject (such as use of alcohol, tobacco, or caffeine). (Source: CDISC Controlled Terminology, GNRLOBSC, C103374, 2023-06-30)",EX,Exposure,"An interventions domain that contains the details of a subject's exposure to protocol-specified study treatment. Study treatment may be any intervention that is prospectively defined as a test material within a study, and is typically but not always supplied to the subject. (Source: CDISC Controlled Terminology, DOMAIN, C49587, 2023-6-28)",O,The unit of measure for the prepared product (treatment + vehicle).,Unit of the administration amount. A CDASH Subset Controlled Terminology Codelist Name is available for dose and volume units.,Exposure Vehicle Amount Units,Maps directly to the SDTMIG variable listed in the SDTMIG Target column.,EXVAMTU,29,Unit,What was the unit for the amount (of [study treatment/dose] ) administered?,Char,"['UNIT', 'EXVOLTU']"
134,Interventions,"This SDTM class captures investigational, therapeutic and other treatments that are administered to the subject (with some actual or expected physiological effect) either as specified by the study protocol (e.g., exposure to study drug), coincident with the study assessment period (e.g., concomitant medications), or self-administered by the subject (such as use of alcohol, tobacco, or caffeine). (Source: CDISC Controlled Terminology, GNRLOBSC, C103374, 2023-06-30)",EX,Exposure,"An interventions domain that contains the details of a subject's exposure to protocol-specified study treatment. Study treatment may be any intervention that is prospectively defined as a test material within a study, and is typically but not always supplied to the subject. (Source: CDISC Controlled Terminology, DOMAIN, C49587, 2023-6-28)",O,The flow rate for the total amount of drug + vehicle administered to the subject.,The infusion rate can be used to derive dose.,Exposure Infusion Rate,"This does not map directly to an SDTMIG variable. This information could be submitted in a SUPPEX dataset as the value of SUPPEX.QVAL where SUPPEX.QNAM = ""EXFLRT"" and SUPPEX.QLABEL= ""Infusion Rate"". Refer to the current SDTM and SDTMIG for instructions on placement of NSVs in SDTM domains.",EXFLRT,30,Infusion Rate,What was the [study treatment/dose] infusion rate?,Num,"['UNIT', 'EXVOLTU']"
135,Interventions,"This SDTM class captures investigational, therapeutic and other treatments that are administered to the subject (with some actual or expected physiological effect) either as specified by the study protocol (e.g., exposure to study drug), coincident with the study assessment period (e.g., concomitant medications), or self-administered by the subject (such as use of alcohol, tobacco, or caffeine). (Source: CDISC Controlled Terminology, GNRLOBSC, C103374, 2023-06-30)",EX,Exposure,"An interventions domain that contains the details of a subject's exposure to protocol-specified study treatment. Study treatment may be any intervention that is prospectively defined as a test material within a study, and is typically but not always supplied to the subject. (Source: CDISC Controlled Terminology, DOMAIN, C49587, 2023-6-28)",O,The unit of measure for the flow rate for the total amount of drug + vehicle administered to the subject.,Unit of the infusion rate,Exposure Infusion Rate Unit,"This does not map directly to an SDTMIG variable. This information could be submitted in a SUPPEX dataset as the value of SUPPEX.QVAL where SUPPEX.QNAM =""EXFLRTU"" and SUPPEX.QLABEL=""Infusion Rate Unit"". Refer to the current SDTM and SDTMIG for instructions on placement of NSVs in SDTM domains.",EXFLRTU,31,(Infusion Rate) Unit,What were the units for the [study treatment/dose] infusion rate?,Char,"['UNIT', 'EXFLRTU']"
136,Interventions,"This SDTM class captures investigational, therapeutic and other treatments that are administered to the subject (with some actual or expected physiological effect) either as specified by the study protocol (e.g., exposure to study drug), coincident with the study assessment period (e.g., concomitant medications), or self-administered by the subject (such as use of alcohol, tobacco, or caffeine). (Source: CDISC Controlled Terminology, GNRLOBSC, C103374, 2023-06-30)",EX,Exposure,"An interventions domain that contains the details of a subject's exposure to protocol-specified study treatment. Study treatment may be any intervention that is prospectively defined as a test material within a study, and is typically but not always supplied to the subject. (Source: CDISC Controlled Terminology, DOMAIN, C49587, 2023-6-28)",R/C,"A text description of the planned time point when measurements should be taken, as defined in the protocol.","Planned time points are needed to differentiate multiple sequential assessments. It is recommended that time points should be preprinted on the CRF rather than collected in a field that requires the site to enter text. If the form is laid out as a grid, then words such as ""Planned Time Point"" can be included in the column heading.",Exposure Planned Time Point Name,"Maps directly to the SDTMIG variable listed in the SDTMIG Target column. See the SDTMIG for additional information on representing time points. The SDTMIG time-point anchors EXTPTREF (text description) and EXRFTDTC (date/time) may be needed, as well as SDTMIG variables EXTPTNUM, EXELTM.",EXTPT,32,[Planned Time Point Name],What was the planned time point for [study treatment/dose] ?,Char,"['UNIT', 'EXFLRTU']"
137,Interventions,"This SDTM class captures investigational, therapeutic and other treatments that are administered to the subject (with some actual or expected physiological effect) either as specified by the study protocol (e.g., exposure to study drug), coincident with the study assessment period (e.g., concomitant medications), or self-administered by the subject (such as use of alcohol, tobacco, or caffeine). (Source: CDISC Controlled Terminology, GNRLOBSC, C103374, 2023-06-30)",EX,Exposure,"An interventions domain that contains the details of a subject's exposure to protocol-specified study treatment. Study treatment may be any intervention that is prospectively defined as a test material within a study, and is typically but not always supplied to the subject. (Source: CDISC Controlled Terminology, DOMAIN, C49587, 2023-6-28)",O,Indication of whether the subject completed the intended regimen.,"Depending on how the study treatment details are collected via the CRF/eCRF, it may be possible to derive those data if the regimen data are collected.",Completed Treatment,"This does not map directly to an SDTMIG variable. This information could be submitted in a SUPPEX dataset as the value of SUPPEX.QVAL where SUPPEX.QNAM = ""EXTRTCMP"" and SUPPEX.QLABEL="" Completed Treatment"". Refer to the current SDTM and SDTMIG for instructions on placement of NSVs in SDTM domains.",EXTRTCMP,33,Completed Treatment,Did the subject complete the full course of [study treatment/dose] ?,Char,['NY']
