{
    "domain_name": "AE",
    "field_definition": "A unique identifier for a study.",
    "field_implementationNotes": "Although this field is not typically captured on a CRF, it should be displayed clearly on the CRF and\/or the EDC system. This field can be included into the database or populated during SDTM-based dataset creation before submission.",
    "field_label": "Study Identifier",
    "field_mappingInstructions": "Maps directly to the SDTMIG variable listed in the SDTMIG Target column.",
    "field_name": "STUDYID",
    "field_ordinal": 1,
    "field_prompt": "[Protocol\/Study]",
    "field_questionText": "What is the study identifier?",
    "field_simpleDatatype": "Char",
    "field_codelistSubmissionValues": null
}
{
    "domain_name": "AE",
    "field_definition": "A unique identifier for a site within a study.",
    "field_implementationNotes": "Paper: This is typically preprinted in the header of each CRF page for single-site studies. For studies with multiple sites, this field may be left blank so that the number can be recorded by the site, or it may be preprinted for the CRFs that are shipped to each site. \\n EDC: This should be prepopulated.",
    "field_label": "Study Site Identifier",
    "field_mappingInstructions": "Maps directly to the SDTMIG variable listed in the SDTMIG Target column.",
    "field_name": "SITEID",
    "field_ordinal": 2,
    "field_prompt": "Site (Identifier)",
    "field_questionText": "What is the site identifier?",
    "field_simpleDatatype": "Char",
    "field_codelistSubmissionValues": null
}
{
    "domain_name": "AE",
    "field_definition": "A unique subject identifier within a site and a study.",
    "field_implementationNotes": "Paper: This is typically recorded in the header of each CRF page. EDC: The subject identifiers may be system generated. This CDASH variable is typically collected in all CDASH domains. However, this CDASH variable is populated only in the SDTMIG DM domain. For more information, refer to the SDTMIG.",
    "field_label": "Subject Identifier for the Study",
    "field_mappingInstructions": "Maps directly to the SDTMIG variable listed in the SDTMIG Target column.",
    "field_name": "SUBJID",
    "field_ordinal": 3,
    "field_prompt": "[Subject\/Participant] (Identifier)",
    "field_questionText": "What [is\/was] the (study) [subject\/participant] identifier?",
    "field_simpleDatatype": "Char",
    "field_codelistSubmissionValues": null
}
{
    "domain_name": "AE",
    "field_definition": "The reported or prespecified name of the adverse event.",
    "field_implementationNotes": "Can be represented either as an open-entry field to capture verbatim terms reported by subjects or preprinted, in the situation where solicited AEs of interest are captured. In most cases, the verbatim term (i.e., investigator-reported term) will be coded to a standard medical dictionary (e.g., MedDRA, WHO ART) after the data have been collected on the CRF.",
    "field_label": "Reported Term for the Adverse Event",
    "field_mappingInstructions": "Maps directly to the SDTMIG variable listed in the SDTMIG Target column.",
    "field_name": "AETERM",
    "field_ordinal": 8,
    "field_prompt": "Adverse Event",
    "field_questionText": "What is the adverse event term?",
    "field_simpleDatatype": "Char",
    "field_codelistSubmissionValues": null
}
{
    "domain_name": "AE",
    "field_definition": "The start date of the adverse event, represented in an unambiguous date format (e.g., DD-MON-YYYY).",
    "field_implementationNotes": null,
    "field_label": "Adverse Event Start Date",
    "field_mappingInstructions": "This does not map directly to an SDTMIG variable. For the SDTM submission dataset, concatenate all collected CDASH START DATE and TIME components and populate the SDTMIG variable AESTDTC in ISO 8601 format.",
    "field_name": "AESTDAT",
    "field_ordinal": 11,
    "field_prompt": "Start Date",
    "field_questionText": "What is the adverse event start date?",
    "field_simpleDatatype": "Char",
    "field_codelistSubmissionValues": null
}
{
    "domain_name": "AE",
    "field_definition": "The start time of the adverse event, represented in an unambiguous time format (e.g., hh:mm:ss).",
    "field_implementationNotes": "Collecting the time an AE started is only appropriate if it can be realistically determined and if there is a scientific reason for needing to know this level of detail. An example is where the subject is under the direct care of the site at the time the event started and the study design is such that it is important to know the AE start time with respect to dosing.",
    "field_label": "Start Time of Adverse Event",
    "field_mappingInstructions": "This does not map directly to an SDTMIG variable. For the SDTM submission dataset, concatenate all collected CDASH START DATE and TIME components and populate the SDTMIG variable AESTDTC in ISO 8601 format.",
    "field_name": "AESTTIM",
    "field_ordinal": 12,
    "field_prompt": "Start Time",
    "field_questionText": "What is the adverse event start time?",
    "field_simpleDatatype": "Char",
    "field_codelistSubmissionValues": null
}
{
    "domain_name": "AE",
    "field_definition": "The date when the adverse event resolved\/ended, represented in an unambiguous date format (e.g., DD-MON-YYYY).",
    "field_implementationNotes": "The definition of resolved is sponsor-specific. The preferred method is to collect a complete end date (if applicable). Partial dates (e.g., providing year only, month and year only) may be acceptable.",
    "field_label": "Adverse Event End Date",
    "field_mappingInstructions": "This does not map directly to an SDTMIG variable. For the SDTM submission dataset, concatenate all collected CDASH END DATE and TIME components and populate the SDTMIG variable AEENDTC in ISO 8601 format.",
    "field_name": "AEENDAT",
    "field_ordinal": 18,
    "field_prompt": "End Date",
    "field_questionText": "What was the adverse event end date?",
    "field_simpleDatatype": "Char",
    "field_codelistSubmissionValues": null
}
{
    "domain_name": "AE",
    "field_definition": "The time when the adverse event ended\/resolved, represented in an unambiguous time format (e.g., hh:mm:ss).",
    "field_implementationNotes": "Collecting the time an AE resolved is only appropriate if it can be realistically determined and if there is a scientific reason for needing to know this level of detail. An example is where the subject is under the direct care of the site at the time the event resolved and the study design is such that it is important to know the AE end time with respect to dosing.",
    "field_label": "End Time of Adverse Event",
    "field_mappingInstructions": "This does not map directly to an SDTMIG variable. For the SDTM submission dataset, concatenate all collected CDASH END DATE and TIME components and populate the SDTMIG variable AEENDTC in ISO 8601 format.",
    "field_name": "AEENTIM",
    "field_ordinal": 19,
    "field_prompt": "End Time",
    "field_questionText": "What was the adverse event end time?",
    "field_simpleDatatype": "Char",
    "field_codelistSubmissionValues": null
}
{
    "domain_name": "AE",
    "field_definition": "The severity or intensity of the event.",
    "field_implementationNotes": "Either AESEV or AETOXGR must appear on the CRF. Some studies may mandate the collection of both. Refer to ICH E3 Section 12.2.4.",
    "field_label": "AE Severity\/Intensity",
    "field_mappingInstructions": "Maps directly to the SDTMIG variable listed in the SDTMIG Target column.",
    "field_name": "AESEV",
    "field_ordinal": 20,
    "field_prompt": "Severity",
    "field_questionText": "What is the severity of the adverse event?",
    "field_simpleDatatype": "Char",
    "field_codelistSubmissionValues": "['AESEV']"
}
{
    "domain_name": "AE",
    "field_definition": "The grade of the severity of the event using a standard \"toxicity\" scale (e.g., NCI CTCAE).",
    "field_implementationNotes": "Either AESEV or AETOXGR must appear on the CRF. Some studies may mandate the collection of both. Refer to ICH E3 Section 12.2.4. CTCAE grade is commonly used in oncology studies, although it can also be used elsewhere. Other published toxicity-like scales can also be used.",
    "field_label": "AE Standard Toxicity Grade",
    "field_mappingInstructions": "Maps directly to the SDTMIG variable listed in the SDTMIG Target columnget. The sponsor is expected to provide the toxicity scale name and version used to map the terms utilizing the Define-XML external codelist attributes.",
    "field_name": "AETOXGR",
    "field_ordinal": 21,
    "field_prompt": "[NCI CTCAE\/ Name of the scale] (Toxicity) Grade",
    "field_questionText": "What is the [NCI CTCAE\/Name of scale (toxicity) grade] of the adverse event?",
    "field_simpleDatatype": "Char",
    "field_codelistSubmissionValues": null
}
{
    "domain_name": "AE",
    "field_definition": "An indication of whether the adverse event is determined to be \"serious,\" based on what is defined in the regulations\/protocol.",
    "field_implementationNotes": "This field is related to the individual SAE-type fields, which may or may not be collected on the CRF. Either AESER or all the SAE-type fields must be present on the CRF. Sponsors should consult with regulatory agencies regarding the collection of this data.",
    "field_label": "AE Serious Event",
    "field_mappingInstructions": "Maps directly to the SDTMIG variable listed in the SDTMIG Target column.",
    "field_name": "AESER",
    "field_ordinal": 22,
    "field_prompt": "Serious",
    "field_questionText": "Was the adverse event serious?",
    "field_simpleDatatype": "Char",
    "field_codelistSubmissionValues": "['NY']"
}
{
    "domain_name": "AE",
    "field_definition": "An indication the serious adverse event resulted in death.",
    "field_implementationNotes": "If details regarding SAEs are collected in the clinical database, then it is recommended that a separate Yes\/No variable be defined for each SAE type. Sponsors may only collect the AESER field when collecting individual SAE types in a separate pharmacovigilance database. Sponsors should consult with regulatory agencies regarding the collection of this data.",
    "field_label": "Results in Death",
    "field_mappingInstructions": "Maps directly to the SDTMIG variable listed in the SDTMIG Target column.",
    "field_name": "AESDTH",
    "field_ordinal": 23,
    "field_prompt": "Death",
    "field_questionText": "Did the adverse event result in death?",
    "field_simpleDatatype": "Char",
    "field_codelistSubmissionValues": "['NY']"
}
{
    "domain_name": "AE",
    "field_definition": "An indication the serious adverse event was life threatening.",
    "field_implementationNotes": "If details regarding SAEs are collected in the clinical database, then it is recommended that a separate Yes\/No variable be defined for each SAE type. Sponsors may only collect the AESER field when collecting individual SAE types in a separate pharmacovigilance database. Sponsors should consult with regulatory agencies regarding the collection of this data.",
    "field_label": "Is Life Threatening",
    "field_mappingInstructions": "Maps directly to the SDTMIG variable listed in the SDTMIG Target column.",
    "field_name": "AESLIFE",
    "field_ordinal": 25,
    "field_prompt": "Life Threatening",
    "field_questionText": "Was the adverse event life threatening?",
    "field_simpleDatatype": "Char",
    "field_codelistSubmissionValues": "['NY']"
}
{
    "domain_name": "AE",
    "field_definition": "An indication the serious adverse event resulted in an initial or prolonged hospitalization.",
    "field_implementationNotes": "If details regarding SAEs are collected in the clinical database, then it is recommended that a separate Yes\/No variable be defined for each SAE type. Sponsors may only collect the AESER field when collecting individual SAE types in a separate pharmacovigilance database. Sponsors should consult with regulatory agencies regarding the collection of this data.",
    "field_label": "Requires or Prolongs Hospitalization",
    "field_mappingInstructions": "Maps directly to the SDTMIG variable listed in the SDTMIG Target column.",
    "field_name": "AESHOSP",
    "field_ordinal": 26,
    "field_prompt": "Hospitalization (initial or prolonged)",
    "field_questionText": "Did the adverse event result in initial or prolonged hospitalization for the subject?",
    "field_simpleDatatype": "Char",
    "field_codelistSubmissionValues": "['NY']"
}
{
    "domain_name": "AE",
    "field_definition": "An indication the serious adverse event was associated with a persistent or significant disability or incapacity.",
    "field_implementationNotes": "If details regarding SAEs are collected in the clinical database, then it is recommended that a separate Yes\/No variable be defined for each SAE type. Sponsors may only collect the AESER field when collecting individual SAE types in a separate pharmacovigilance database. Sponsors should consult with regulatory agencies regarding the collection of this data.",
    "field_label": "Persist or Signif Disability\/Incapacity",
    "field_mappingInstructions": "Maps directly to the SDTMIG variable listed in the SDTMIG Target column.",
    "field_name": "AESDISAB",
    "field_ordinal": 27,
    "field_prompt": "Disability or Permanent Damage",
    "field_questionText": "Did the adverse event result in disability or permanent damage?",
    "field_simpleDatatype": "Char",
    "field_codelistSubmissionValues": "['NY']"
}
{
    "domain_name": "AE",
    "field_definition": "An indication the serious adverse event was associated with a congenital anomaly or birth defect.",
    "field_implementationNotes": "If details regarding SAEs are collected in the clinical database, then it is recommended that a separate Yes\/No variable be defined for each SAE type. Sponsors may only collect the AESER field when collecting individual SAE types in a separate pharmacovigilance database. Sponsors should consult with regulatory agencies regarding the collection of this data.",
    "field_label": "Congenital Anomaly or Birth Defect",
    "field_mappingInstructions": "Maps directly to the SDTMIG variable listed in the SDTMIG Target column.",
    "field_name": "AESCONG",
    "field_ordinal": 28,
    "field_prompt": "Congenital Anomaly or Birth Defect",
    "field_questionText": "Was the adverse event associated with a congenital anomaly or birth defect?",
    "field_simpleDatatype": "Char",
    "field_codelistSubmissionValues": "['NY']"
}
{
    "domain_name": "AE",
    "field_definition": "An indication additional categories for seriousness apply.",
    "field_implementationNotes": "If details regarding SAEs are collected in the clinical database, then it is recommended that a separate Yes\/No variable be defined for each SAE type. Sponsors may only collect the AESER field when collecting individual SAE types in a separate pharmacovigilance database. Sponsors should consult with regulatory agencies regarding the collection of this data.",
    "field_label": "Other Medically Important Serious Event",
    "field_mappingInstructions": "Maps directly to the SDTMIG variable listed in the SDTMIG Target column.",
    "field_name": "AESMIE",
    "field_ordinal": 30,
    "field_prompt": "Other Serious (Important Medical Events)",
    "field_questionText": "Was the adverse event a medically important event not covered by other serious criteria?",
    "field_simpleDatatype": "Char",
    "field_codelistSubmissionValues": "['NY']"
}
{
    "domain_name": "AE",
    "field_definition": "An indication the study treatment had a causal effect on the adverse event, as determined by the clinician\/investigator.",
    "field_implementationNotes": "Sponsor-defined controlled terminology is used to indicate the relationship between the AE and the study treatment (e.g., ICH E2B examples include \"Not Related\", \"Unlikely Related\", \"Possibly Related\", \"Related\"). Another possibility is the use of \"Y\" and \"N\". CDISC Controlled Terminology may be defined in the future. It is recommended that sponsors check with the appropriate regulatory authority for population of this variable to ensure it meets expectations for submission. There is no industry-wide controlled terminology for relationship to treatment. It is recommended that sponsors establish terminology and apply it consistently.",
    "field_label": "AE Causality",
    "field_mappingInstructions": "Maps directly to the SDTMIG variable listed in the SDTMIG Target column.",
    "field_name": "AEREL",
    "field_ordinal": 33,
    "field_prompt": "Relationship to Study Treatment",
    "field_questionText": "Was this adverse event related to study treatment?",
    "field_simpleDatatype": "Char",
    "field_codelistSubmissionValues": null
}
{
    "domain_name": "AE",
    "field_definition": "A description of the action taken with study treatment as a result of the event.",
    "field_implementationNotes": "CDISC Controlled Terminology is used to indicate the action taken with the study treatment in response to the AE. How to handle multiple actions taken is up to the sponsor. If this information is collected elsewhere (e.g., on the Exposure CRF), then it is not required to be collected on the AE CRF. This variable is not to be used for actions taken with devices. See the SDTMIG-MD for information on reporting multiple actions, or actions with multiple devices.",
    "field_label": "Action Taken with Study Treatment",
    "field_mappingInstructions": "Maps directly to the SDTMIG variable listed in the SDTMIG Target column.",
    "field_name": "AEACN",
    "field_ordinal": 34,
    "field_prompt": "Action Taken with Study Treatment",
    "field_questionText": "What action was taken with study treatment?",
    "field_simpleDatatype": "Char",
    "field_codelistSubmissionValues": "['ACN']"
}
{
    "domain_name": "AE",
    "field_definition": "A description of the outcome of an event.",
    "field_implementationNotes": "CDISC Controlled Terminology is used to indicate the outcome of the event as it relates to the subject's status. The Outcome controlled terminology includes ICH E2B values. The use of this field is the recommended way to describe whether and how the AE resolved. Because the outcome of an AE may be death, if this field is NOT used, be sure to provide another form, such as Disposition, with clear instructions to record deaths there.",
    "field_label": "Outcome of Adverse Event",
    "field_mappingInstructions": "Maps directly to the SDTMIG variable listed in the SDTMIG Target column.",
    "field_name": "AEOUT",
    "field_ordinal": 38,
    "field_prompt": "Outcome",
    "field_questionText": "What is the outcome of this adverse event?",
    "field_simpleDatatype": "Char",
    "field_codelistSubmissionValues": "['OUT']"
}
{
    "domain_name": "AE",
    "field_definition": "If the value for AETERM is modified to facilitate coding, then AEMODIFY will contain the modified text.",
    "field_implementationNotes": "This is not a data collection field that would appear on the CRF. Sponsors will populate this through the coding process.",
    "field_label": "AE Modified Reported Term",
    "field_mappingInstructions": "Maps directly to the SDTMIG variable listed in the SDTMIG Target column.",
    "field_name": "AEMODIFY",
    "field_ordinal": 45,
    "field_prompt": null,
    "field_questionText": null,
    "field_simpleDatatype": "Char",
    "field_codelistSubmissionValues": null
}
{
    "domain_name": "AE",
    "field_definition": "The dictionary-derived text description of the lowest level term.",
    "field_implementationNotes": "This field does not typically appear on the CRF. Sponsors will populate this through the coding process. This is applicable to items using MedDRA coding.",
    "field_label": "AE Lowest Level Term",
    "field_mappingInstructions": "Maps directly to the SDTMIG variable listed in the SDTMIG Target column. The sponsor is expected to provide the dictionary name and version used to map the terms utilizing the Define-XML external codelist attributes. Sponsors should include an Origin in the define metadata document to indicate that the data was \"ASSIGNED\".",
    "field_name": "AELLT",
    "field_ordinal": 47,
    "field_prompt": null,
    "field_questionText": null,
    "field_simpleDatatype": "Char",
    "field_codelistSubmissionValues": null
}
{
    "domain_name": "AE",
    "field_definition": "The dictionary-derived code for the lowest level term.",
    "field_implementationNotes": "This field does not typically appear on the CRF. Sponsors will populate this through the coding process. This is applicable to items using MedDRA coding.",
    "field_label": "AE Lowest Level Term Code",
    "field_mappingInstructions": "Maps directly to the SDTMIG variable listed in the SDTMIG Target column. The sponsor is expected to provide the dictionary name and version used to map the terms utilizing the Define-XML external codelist attributes. Sponsors should include an Origin in the define metadata document to indicate that the data was \"ASSIGNED\".",
    "field_name": "AELLTCD",
    "field_ordinal": 48,
    "field_prompt": null,
    "field_questionText": null,
    "field_simpleDatatype": "Num",
    "field_codelistSubmissionValues": null
}
{
    "domain_name": "AE",
    "field_definition": "The dictionary-derived code for the preferred term.",
    "field_implementationNotes": "This field does not typically appear on the CRF. Sponsors will populate this through the coding process. This is applicable to items using MedDRA coding.",
    "field_label": "AE Preferred Term Code",
    "field_mappingInstructions": "Maps directly to the SDTMIG variable listed in the SDTMIG Target column. The sponsor is expected to provide the dictionary name and version used to map the terms utilizing the Define-XML external codelist attributes. Sponsors should include an Origin in the define metadata document to indicate that the data was \"ASSIGNED\".",
    "field_name": "AEPTCD",
    "field_ordinal": 49,
    "field_prompt": null,
    "field_questionText": null,
    "field_simpleDatatype": "Num",
    "field_codelistSubmissionValues": null
}
{
    "domain_name": "AE",
    "field_definition": "The dictionary-derived text description of the high level term for the primary system organ class (SOC).",
    "field_implementationNotes": "This field does not typically appear on the CRF. Sponsors will populate this through the coding process. This is applicable to items using MedDRA coding.",
    "field_label": "AE High Level Term",
    "field_mappingInstructions": "Maps directly to the SDTMIG variable listed in the SDTMIG Target column. The sponsor is expected to provide the dictionary name and version used to map the terms utilizing the Define-XML external codelist attributes. Sponsors should include an Origin in the define metadata document to indicate that the data was \"ASSIGNED\".",
    "field_name": "AEHLT",
    "field_ordinal": 50,
    "field_prompt": null,
    "field_questionText": null,
    "field_simpleDatatype": "Char",
    "field_codelistSubmissionValues": null
}
{
    "domain_name": "AE",
    "field_definition": "The dictionary-derived code for the high level term for the primary system organ class (SOC).",
    "field_implementationNotes": "This field does not typically appear on the CRF. Sponsors will populate this through the coding process. This is applicable to items using MedDRA coding.",
    "field_label": "AE High Level Term Code",
    "field_mappingInstructions": "Maps directly to the SDTMIG variable listed in the SDTMIG Target column. The sponsor is expected to provide the dictionary name and version used to map the terms utilizing the Define-XML external codelist attributes. Sponsors should include an Origin in the define metadata document to indicate that the data was \"ASSIGNED\".",
    "field_name": "AEHLTCD",
    "field_ordinal": 51,
    "field_prompt": null,
    "field_questionText": null,
    "field_simpleDatatype": "Num",
    "field_codelistSubmissionValues": null
}
{
    "domain_name": "AE",
    "field_definition": "The dictionary-derived text description of the high level group term for the primary system organ class (SOC).",
    "field_implementationNotes": "This field does not typically appear on the CRF. Sponsors will populate this through the coding process. This is applicable to items using MedDRA coding.",
    "field_label": "AE High Level Group Term",
    "field_mappingInstructions": "Maps directly to the SDTMIG variable listed in the SDTMIG Target column. The sponsor is expected to provide the dictionary name and version used to map the terms utilizing the Define-XML external codelist attributes. Sponsors should include an Origin in the define metadata document to indicate that the data was \"ASSIGNED\".",
    "field_name": "AEHLGT",
    "field_ordinal": 52,
    "field_prompt": null,
    "field_questionText": null,
    "field_simpleDatatype": "Char",
    "field_codelistSubmissionValues": null
}
{
    "domain_name": "AE",
    "field_definition": "The dictionary-derived code for the high level group term for the primary system organ class (SOC).",
    "field_implementationNotes": "This field does not typically appear on the CRF. Sponsors will populate this through the coding process. This is applicable to items using MedDRA coding.",
    "field_label": "AE High Level Group Term Code",
    "field_mappingInstructions": "Maps directly to the SDTMIG variable listed in the SDTMIG Target column. The sponsor is expected to provide the dictionary name and version used to map the terms utilizing the Define-XML external codelist attributes. Sponsors should include an Origin in the define metadata document to indicate that the data was \"ASSIGNED\".",
    "field_name": "AEHLGTCD",
    "field_ordinal": 53,
    "field_prompt": null,
    "field_questionText": null,
    "field_simpleDatatype": "Num",
    "field_codelistSubmissionValues": null
}
{
    "domain_name": "AE",
    "field_definition": "The dictionary-derived text description of the primary system organ class (SOC).",
    "field_implementationNotes": "This field does not typically appear on the CRF. Sponsors will populate this through the coding process. This is applicable to items using MedDRA coding. Will be the same as the AEBODSYS if the primary SOC was used for analysis.",
    "field_label": "AE Primary System Organ Class",
    "field_mappingInstructions": "Maps directly to the SDTMIG variable listed in the SDTMIG Target column. The sponsor is expected to provide the dictionary name and version used to map the terms utilizing the Define-XML external codelist attributes. Sponsors should include an Origin in the define metadata document to indicate that the data was \"ASSIGNED\".",
    "field_name": "AESOC",
    "field_ordinal": 54,
    "field_prompt": null,
    "field_questionText": null,
    "field_simpleDatatype": "Char",
    "field_codelistSubmissionValues": null
}
{
    "domain_name": "AE",
    "field_definition": "The dictionary-derived code for the primary system organ class (SOC).",
    "field_implementationNotes": "This field does not typically appear on the CRF. Sponsors will populate this through the coding process. This is applicable to items using MedDRA coding. Will be the same as AEBDSYCD if the primary SOC was used for analysis.",
    "field_label": "AE Primary System Organ Class Code",
    "field_mappingInstructions": "Maps directly to the SDTMIG variable listed in the SDTMIG Target column. The sponsor is expected to provide the dictionary name and version used to map the terms utilizing the Define-XML external codelist attributes. Sponsors should include an Origin in the define metadata document to indicate that the data was \"ASSIGNED\".",
    "field_name": "AESOCCD",
    "field_ordinal": 55,
    "field_prompt": null,
    "field_questionText": null,
    "field_simpleDatatype": "Num",
    "field_codelistSubmissionValues": null
}